datatime,acc_x,acc_y,acc_z
2021-10-27 16:13:08+00:00,2,2,56
2021-10-27 16:13:08.031250+00:00,1,2,57
2021-10-27 16:13:08.062500+00:00,0,3,61
2021-10-27 16:13:08.093750+00:00,1,2,64
2021-10-27 16:13:08.125000+00:00,2,2,60
2021-10-27 16:13:08.156250+00:00,3,2,62
2021-10-27 16:13:08.187500+00:00,4,2,63
2021-10-27 16:13:08.218750+00:00,3,2,64
2021-10-27 16:13:08.250000+00:00,3,2,64
2021-10-27 16:13:08.281250+00:00,3,3,63
2021-10-27 16:13:08.312500+00:00,3,3,62
2021-10-27 16:13:08.343750+00:00,3,4,62
2021-10-27 16:13:08.375000+00:00,2,4,61
2021-10-27 16:13:08.406250+00:00,4,4,63
2021-10-27 16:13:08.437500+00:00,3,4,64
2021-10-27 16:13:08.468750+00:00,2,4,63
2021-10-27 16:13:08.500000+00:00,3,4,63
2021-10-27 16:13:08.531250+00:00,1,4,66
2021-10-27 16:13:08.562500+00:00,0,3,71
2021-10-27 16:13:08.593750+00:00,0,2,71
2021-10-27 16:13:08.625000+00:00,-3,1,71
2021-10-27 16:13:08.656250+00:00,-4,1,73
2021-10-27 16:13:08.687500+00:00,-3,3,72
2021-10-27 16:13:08.718750+00:00,-3,2,63
2021-10-27 16:13:08.750000+00:00,-4,1,62
2021-10-27 16:13:08.781250+00:00,-5,-3,63
2021-10-27 16:13:08.812500+00:00,-5,-3,62
2021-10-27 16:13:08.843750+00:00,-6,-2,59
2021-10-27 16:13:08.875000+00:00,-7,-2,58
2021-10-27 16:13:08.906250+00:00,-4,-3,57
2021-10-27 16:13:08.937500+00:00,-3,-4,55
2021-10-27 16:13:08.968750+00:00,-2,-5,54
2021-10-27 16:13:09+00:00,1,-7,54
2021-10-27 16:13:09.031250+00:00,1,-8,55
2021-10-27 16:13:09.062500+00:00,-1,-9,56
2021-10-27 16:13:09.093750+00:00,-2,-9,56
2021-10-27 16:13:09.125000+00:00,0,-8,59
2021-10-27 16:13:09.156250+00:00,1,-7,62
2021-10-27 16:13:09.187500+00:00,1,-6,62
2021-10-27 16:13:09.218750+00:00,1,-2,68
2021-10-27 16:13:09.250000+00:00,1,-1,69
2021-10-27 16:13:09.281250+00:00,2,0,68
2021-10-27 16:13:09.312500+00:00,2,-1,67
2021-10-27 16:13:09.343750+00:00,1,-1,69
2021-10-27 16:13:09.375000+00:00,-4,3,71
2021-10-27 16:13:09.406250+00:00,-5,6,73
2021-10-27 16:13:09.437500+00:00,0,10,65
2021-10-27 16:13:09.468750+00:00,0,11,64
2021-10-27 16:13:09.500000+00:00,0,13,69
2021-10-27 16:13:09.531250+00:00,3,15,71
2021-10-27 16:13:09.562500+00:00,6,12,65
2021-10-27 16:13:09.593750+00:00,4,9,54
2021-10-27 16:13:09.625000+00:00,4,8,53
2021-10-27 16:13:09.656250+00:00,3,7,53
2021-10-27 16:13:09.687500+00:00,1,5,52
2021-10-27 16:13:09.718750+00:00,8,2,51
2021-10-27 16:13:09.750000+00:00,7,1,53
2021-10-27 16:13:09.781250+00:00,9,2,58
2021-10-27 16:13:09.812500+00:00,13,2,58
2021-10-27 16:13:09.843750+00:00,12,3,59
2021-10-27 16:13:09.875000+00:00,12,5,64
2021-10-27 16:13:09.906250+00:00,10,7,65
2021-10-27 16:13:09.937500+00:00,8,4,65
2021-10-27 16:13:09.968750+00:00,6,2,66
2021-10-27 16:13:10+00:00,7,-3,70
2021-10-27 16:13:10.031250+00:00,4,-5,72
2021-10-27 16:13:10.062500+00:00,3,-6,73
2021-10-27 16:13:10.093750+00:00,-1,-3,73
2021-10-27 16:13:10.125000+00:00,-1,-4,71
2021-10-27 16:13:10.156250+00:00,2,-6,66
2021-10-27 16:13:10.187500+00:00,1,-5,63
2021-10-27 16:13:10.218750+00:00,0,-2,58
2021-10-27 16:13:10.250000+00:00,-2,-1,51
2021-10-27 16:13:10.281250+00:00,0,-2,49
2021-10-27 16:13:10.312500+00:00,3,-3,47
2021-10-27 16:13:10.343750+00:00,0,-4,46
2021-10-27 16:13:10.375000+00:00,0,-8,46
2021-10-27 16:13:10.406250+00:00,-1,-9,48
2021-10-27 16:13:10.437500+00:00,-3,-8,57
2021-10-27 16:13:10.468750+00:00,-1,-8,60
2021-10-27 16:13:10.500000+00:00,1,-7,61
2021-10-27 16:13:10.531250+00:00,2,-5,64
2021-10-27 16:13:10.562500+00:00,-1,-1,67
2021-10-27 16:13:10.593750+00:00,-1,6,71
2021-10-27 16:13:10.625000+00:00,0,8,70
2021-10-27 16:13:10.656250+00:00,-2,13,68
2021-10-27 16:13:10.687500+00:00,-11,19,74
2021-10-27 16:13:10.718750+00:00,-13,18,75
2021-10-27 16:13:10.750000+00:00,-13,12,73
2021-10-27 16:13:10.781250+00:00,-12,9,70
2021-10-27 16:13:10.812500+00:00,-14,5,66
2021-10-27 16:13:10.843750+00:00,-15,5,65
2021-10-27 16:13:10.875000+00:00,-14,1,58
2021-10-27 16:13:10.906250+00:00,-13,-2,54
2021-10-27 16:13:10.937500+00:00,-12,-3,53
2021-10-27 16:13:10.968750+00:00,-13,-3,51
2021-10-27 16:13:11+00:00,-13,-3,51
2021-10-27 16:13:11.031250+00:00,-9,-2,53
2021-10-27 16:13:11.062500+00:00,-9,-1,55
2021-10-27 16:13:11.093750+00:00,-10,2,59
2021-10-27 16:13:11.125000+00:00,-12,4,62
2021-10-27 16:13:11.156250+00:00,-12,5,64
2021-10-27 16:13:11.187500+00:00,-12,7,70
2021-10-27 16:13:11.218750+00:00,-12,8,71
2021-10-27 16:13:11.250000+00:00,-8,10,67
2021-10-27 16:13:11.281250+00:00,-6,8,66
2021-10-27 16:13:11.312500+00:00,-9,0,69
2021-10-27 16:13:11.343750+00:00,-20,-2,74
2021-10-27 16:13:11.375000+00:00,-23,0,74
2021-10-27 16:13:11.406250+00:00,-28,0,64
2021-10-27 16:13:11.437500+00:00,-26,-3,62
2021-10-27 16:13:11.468750+00:00,-23,-4,63
2021-10-27 16:13:11.500000+00:00,-24,-3,60
2021-10-27 16:13:11.531250+00:00,-26,0,55
2021-10-27 16:13:11.562500+00:00,-22,4,54
2021-10-27 16:13:11.593750+00:00,-19,5,51
2021-10-27 16:13:11.625000+00:00,-14,3,44
2021-10-27 16:13:11.656250+00:00,-15,2,43
2021-10-27 16:13:11.687500+00:00,-14,-2,46
2021-10-27 16:13:11.718750+00:00,-14,-3,49
2021-10-27 16:13:11.750000+00:00,-14,-2,55
2021-10-27 16:13:11.781250+00:00,-16,-4,61
2021-10-27 16:13:11.812500+00:00,-18,-4,66
2021-10-27 16:13:11.843750+00:00,-29,4,76
2021-10-27 16:13:11.875000+00:00,-28,6,76
2021-10-27 16:13:11.906250+00:00,-19,10,76
2021-10-27 16:13:11.937500+00:00,-18,11,76
2021-10-27 16:13:11.968750+00:00,-18,14,70
2021-10-27 16:13:12+00:00,-13,12,59
2021-10-27 16:13:12.031250+00:00,-14,12,56
2021-10-27 16:13:12.062500+00:00,-15,10,57
2021-10-27 16:13:12.093750+00:00,-13,7,57
2021-10-27 16:13:12.125000+00:00,-21,6,59
2021-10-27 16:13:12.156250+00:00,-20,4,60
2021-10-27 16:13:12.187500+00:00,-16,2,57
2021-10-27 16:13:12.218750+00:00,-14,-1,55
2021-10-27 16:13:12.250000+00:00,-13,-2,53
2021-10-27 16:13:12.281250+00:00,-10,-2,51
2021-10-27 16:13:12.312500+00:00,-7,-4,51
2021-10-27 16:13:12.343750+00:00,-8,-6,57
2021-10-27 16:13:12.375000+00:00,-7,-6,58
2021-10-27 16:13:12.406250+00:00,-9,-6,60
2021-10-27 16:13:12.437500+00:00,-10,-6,62
2021-10-27 16:13:12.468750+00:00,-12,-4,63
2021-10-27 16:13:12.500000+00:00,-13,1,68
2021-10-27 16:13:12.531250+00:00,-14,-1,68
2021-10-27 16:13:12.562500+00:00,-18,-3,75
2021-10-27 16:13:12.593750+00:00,-26,3,83
2021-10-27 16:13:12.625000+00:00,-28,6,80
2021-10-27 16:13:12.656250+00:00,-23,2,67
2021-10-27 16:13:12.687500+00:00,-22,-1,64
2021-10-27 16:13:12.718750+00:00,-19,-2,62
2021-10-27 16:13:12.750000+00:00,-19,-2,56
2021-10-27 16:13:12.781250+00:00,-12,2,49
2021-10-27 16:13:12.812500+00:00,-9,3,49
2021-10-27 16:13:12.843750+00:00,-9,2,46
2021-10-27 16:13:12.875000+00:00,-9,1,46
2021-10-27 16:13:12.906250+00:00,-8,-1,47
2021-10-27 16:13:12.937500+00:00,-10,-4,51
2021-10-27 16:13:12.968750+00:00,-13,-4,55
2021-10-27 16:13:13+00:00,-12,-1,62
2021-10-27 16:13:13.031250+00:00,-13,-2,64
2021-10-27 16:13:13.062500+00:00,-12,0,69
2021-10-27 16:13:13.093750+00:00,-13,4,72
2021-10-27 16:13:13.125000+00:00,-12,4,74
2021-10-27 16:13:13.156250+00:00,-10,6,77
2021-10-27 16:13:13.187500+00:00,-11,6,78
2021-10-27 16:13:13.218750+00:00,-13,14,75
2021-10-27 16:13:13.250000+00:00,-10,12,61
2021-10-27 16:13:13.281250+00:00,-10,10,59
2021-10-27 16:13:13.312500+00:00,-11,8,60
2021-10-27 16:13:13.343750+00:00,-11,9,59
2021-10-27 16:13:13.375000+00:00,-8,8,52
2021-10-27 16:13:13.406250+00:00,-7,6,50
2021-10-27 16:13:13.437500+00:00,-8,2,51
2021-10-27 16:13:13.468750+00:00,-7,-1,49
2021-10-27 16:13:13.500000+00:00,-6,-3,49
2021-10-27 16:13:13.531250+00:00,-6,-5,53
2021-10-27 16:13:13.562500+00:00,-5,-7,55
2021-10-27 16:13:13.593750+00:00,-7,-6,60
2021-10-27 16:13:13.625000+00:00,-9,-4,61
2021-10-27 16:13:13.656250+00:00,-7,-1,65
2021-10-27 16:13:13.687500+00:00,-7,2,70
2021-10-27 16:13:13.718750+00:00,-6,3,71
2021-10-27 16:13:13.750000+00:00,-2,2,68
2021-10-27 16:13:13.781250+00:00,-4,0,71
2021-10-27 16:13:13.812500+00:00,-11,1,81
2021-10-27 16:13:13.843750+00:00,-14,6,81
2021-10-27 16:13:13.875000+00:00,-16,7,71
2021-10-27 16:13:13.906250+00:00,-13,3,68
2021-10-27 16:13:13.937500+00:00,-13,4,67
2021-10-27 16:13:13.968750+00:00,-13,5,59
2021-10-27 16:13:14+00:00,-10,5,56
2021-10-27 16:13:14.031250+00:00,-7,6,51
2021-10-27 16:13:14.062500+00:00,-8,6,49
2021-10-27 16:13:14.093750+00:00,-7,5,47
2021-10-27 16:13:14.125000+00:00,-4,3,47
2021-10-27 16:13:14.156250+00:00,-5,2,49
2021-10-27 16:13:14.187500+00:00,-5,-1,54
2021-10-27 16:13:14.218750+00:00,-6,-2,56
2021-10-27 16:13:14.250000+00:00,-9,-3,60
2021-10-27 16:13:14.281250+00:00,-10,-4,63
2021-10-27 16:13:14.312500+00:00,-12,2,73
2021-10-27 16:13:14.343750+00:00,-13,6,75
2021-10-27 16:13:14.375000+00:00,-13,4,75
2021-10-27 16:13:14.406250+00:00,-14,7,82
2021-10-27 16:13:14.437500+00:00,-18,10,82
2021-10-27 16:13:14.468750+00:00,-13,16,73
2021-10-27 16:13:14.500000+00:00,-10,14,64
2021-10-27 16:13:14.531250+00:00,-10,8,57
2021-10-27 16:13:14.562500+00:00,-10,10,60
2021-10-27 16:13:14.593750+00:00,-8,11,57
2021-10-27 16:13:14.625000+00:00,-7,8,50
2021-10-27 16:13:14.656250+00:00,-7,6,51
2021-10-27 16:13:14.687500+00:00,-6,3,52
2021-10-27 16:13:14.718750+00:00,-6,1,50
2021-10-27 16:13:14.750000+00:00,-5,-2,50
2021-10-27 16:13:14.781250+00:00,-5,-4,54
2021-10-27 16:13:14.812500+00:00,-5,-4,56
2021-10-27 16:13:14.843750+00:00,-6,-5,59
2021-10-27 16:13:14.875000+00:00,-5,-5,60
2021-10-27 16:13:14.906250+00:00,-6,-6,64
2021-10-27 16:13:14.937500+00:00,-7,-4,67
2021-10-27 16:13:14.968750+00:00,-7,-1,69
2021-10-27 16:13:15+00:00,-9,-6,68
2021-10-27 16:13:15.031250+00:00,-13,-8,71
2021-10-27 16:13:15.062500+00:00,-21,-9,78
2021-10-27 16:13:15.093750+00:00,-25,-4,82
2021-10-27 16:13:15.125000+00:00,-27,1,73
2021-10-27 16:13:15.156250+00:00,-25,-1,67
2021-10-27 16:13:15.187500+00:00,-21,-3,62
2021-10-27 16:13:15.218750+00:00,-18,-2,55
2021-10-27 16:13:15.250000+00:00,-15,-1,53
2021-10-27 16:13:15.281250+00:00,-12,0,51
2021-10-27 16:13:15.312500+00:00,-10,0,49
2021-10-27 16:13:15.343750+00:00,-12,-1,46
2021-10-27 16:13:15.375000+00:00,-11,-2,47
2021-10-27 16:13:15.406250+00:00,-10,-5,49
2021-10-27 16:13:15.437500+00:00,-10,-5,56
2021-10-27 16:13:15.468750+00:00,-9,-4,59
2021-10-27 16:13:15.500000+00:00,-11,-4,60
2021-10-27 16:13:15.531250+00:00,-13,-4,63
2021-10-27 16:13:15.562500+00:00,-12,-1,70
2021-10-27 16:13:15.593750+00:00,-12,1,70
2021-10-27 16:13:15.625000+00:00,-14,2,72
2021-10-27 16:13:15.656250+00:00,-16,5,80
2021-10-27 16:13:15.687500+00:00,-20,10,82
2021-10-27 16:13:15.718750+00:00,-11,14,71
2021-10-27 16:13:15.750000+00:00,-9,12,61
2021-10-27 16:13:15.781250+00:00,-13,8,59
2021-10-27 16:13:15.812500+00:00,-13,8,62
2021-10-27 16:13:15.843750+00:00,-10,8,54
2021-10-27 16:13:15.875000+00:00,-8,4,47
2021-10-27 16:13:15.906250+00:00,-9,2,47
2021-10-27 16:13:15.937500+00:00,-10,-1,49
2021-10-27 16:13:15.968750+00:00,-10,-2,49
2021-10-27 16:13:16+00:00,-9,-2,50
2021-10-27 16:13:16.031250+00:00,-7,-3,52
2021-10-27 16:13:16.062500+00:00,-8,-3,58
2021-10-27 16:13:16.093750+00:00,-10,-6,60
2021-10-27 16:13:16.125000+00:00,-9,-7,62
2021-10-27 16:13:16.156250+00:00,-12,-5,67
2021-10-27 16:13:16.187500+00:00,-13,-3,67
2021-10-27 16:13:16.218750+00:00,-12,-1,68
2021-10-27 16:13:16.250000+00:00,-13,-4,69
2021-10-27 16:13:16.281250+00:00,-23,-7,74
2021-10-27 16:13:16.312500+00:00,-32,-1,73
2021-10-27 16:13:16.343750+00:00,-31,2,69
2021-10-27 16:13:16.375000+00:00,-27,-1,63
2021-10-27 16:13:16.406250+00:00,-27,-2,62
2021-10-27 16:13:16.437500+00:00,-25,0,63
2021-10-27 16:13:16.468750+00:00,-22,1,60
2021-10-27 16:13:16.500000+00:00,-14,4,53
2021-10-27 16:13:16.531250+00:00,-12,3,48
2021-10-27 16:13:16.562500+00:00,-14,2,48
2021-10-27 16:13:16.593750+00:00,-13,-1,46
2021-10-27 16:13:16.625000+00:00,-14,-3,47
2021-10-27 16:13:16.656250+00:00,-15,-4,52
2021-10-27 16:13:16.687500+00:00,-18,-2,56
2021-10-27 16:13:16.718750+00:00,-16,0,61
2021-10-27 16:13:16.750000+00:00,-16,1,65
2021-10-27 16:13:16.781250+00:00,-18,4,67
2021-10-27 16:13:16.812500+00:00,-20,6,73
2021-10-27 16:13:16.843750+00:00,-19,7,75
2021-10-27 16:13:16.875000+00:00,-25,10,83
2021-10-27 16:13:16.906250+00:00,-25,17,81
2021-10-27 16:13:16.937500+00:00,-20,16,71
2021-10-27 16:13:16.968750+00:00,-16,11,59
2021-10-27 16:13:17+00:00,-16,9,58
2021-10-27 16:13:17.031250+00:00,-15,8,54
2021-10-27 16:13:17.062500+00:00,-12,6,48
2021-10-27 16:13:17.093750+00:00,-12,1,40
2021-10-27 16:13:17.125000+00:00,-13,-1,41
2021-10-27 16:13:17.156250+00:00,-13,-4,43
2021-10-27 16:13:17.187500+00:00,-13,-6,44
2021-10-27 16:13:17.218750+00:00,-13,-7,48
2021-10-27 16:13:17.250000+00:00,-11,-9,55
2021-10-27 16:13:17.281250+00:00,-13,-9,58
2021-10-27 16:13:17.312500+00:00,-16,-8,62
2021-10-27 16:13:17.343750+00:00,-19,-7,65
2021-10-27 16:13:17.375000+00:00,-22,-4,71
2021-10-27 16:13:17.406250+00:00,-22,-3,72
2021-10-27 16:13:17.437500+00:00,-23,-7,71
2021-10-27 16:13:17.468750+00:00,-32,-11,79
2021-10-27 16:13:17.500000+00:00,-37,-9,80
2021-10-27 16:13:17.531250+00:00,-37,-5,69
2021-10-27 16:13:17.562500+00:00,-36,-6,66
2021-10-27 16:13:17.593750+00:00,-33,-5,64
2021-10-27 16:13:17.625000+00:00,-24,-1,54
2021-10-27 16:13:17.656250+00:00,-19,0,49
2021-10-27 16:13:17.687500+00:00,-14,0,43
2021-10-27 16:13:17.718750+00:00,-13,0,43
2021-10-27 16:13:17.750000+00:00,-12,-2,41
2021-10-27 16:13:17.781250+00:00,-15,-4,42
2021-10-27 16:13:17.812500+00:00,-16,-5,44
2021-10-27 16:13:17.843750+00:00,-17,-6,51
2021-10-27 16:13:17.875000+00:00,-17,-5,55
2021-10-27 16:13:17.906250+00:00,-23,-6,64
2021-10-27 16:13:17.937500+00:00,-26,-6,70
2021-10-27 16:13:17.968750+00:00,-23,1,78
2021-10-27 16:13:18+00:00,-26,4,80
2021-10-27 16:13:18.031250+00:00,-24,6,83
2021-10-27 16:13:18.062500+00:00,-19,11,82
2021-10-27 16:13:18.093750+00:00,-16,9,75
2021-10-27 16:13:18.125000+00:00,-14,5,65
2021-10-27 16:13:18.156250+00:00,-16,5,66
2021-10-27 16:13:18.187500+00:00,-16,5,60
2021-10-27 16:13:18.218750+00:00,-10,1,45
2021-10-27 16:13:18.250000+00:00,-11,-1,41
2021-10-27 16:13:18.281250+00:00,-13,-6,40
2021-10-27 16:13:18.312500+00:00,-12,-8,41
2021-10-27 16:13:18.343750+00:00,-13,-8,46
2021-10-27 16:13:18.375000+00:00,-12,-9,48
2021-10-27 16:13:18.406250+00:00,-16,-10,47
2021-10-27 16:13:18.437500+00:00,-6,-11,57
2021-10-27 16:13:18.468750+00:00,-10,-12,60
2021-10-27 16:13:18.500000+00:00,-17,-13,61
2021-10-27 16:13:18.531250+00:00,-13,-8,69
2021-10-27 16:13:18.562500+00:00,-12,-3,73
2021-10-27 16:13:18.593750+00:00,-22,-11,64
2021-10-27 16:13:18.625000+00:00,-31,-14,71
2021-10-27 16:13:18.656250+00:00,-25,-13,72
2021-10-27 16:13:18.687500+00:00,-29,-14,70
2021-10-27 16:13:18.718750+00:00,-42,-13,64
2021-10-27 16:13:18.750000+00:00,-38,-11,65
2021-10-27 16:13:18.781250+00:00,-28,-8,56
2021-10-27 16:13:18.812500+00:00,-24,-3,50
2021-10-27 16:13:18.843750+00:00,-8,-1,49
2021-10-27 16:13:18.875000+00:00,-17,2,48
2021-10-27 16:13:18.906250+00:00,-17,1,47
2021-10-27 16:13:18.937500+00:00,-14,-2,45
2021-10-27 16:13:18.968750+00:00,-14,-3,48
2021-10-27 16:13:19+00:00,-14,-1,53
2021-10-27 16:13:19.031250+00:00,-15,-2,54
2021-10-27 16:13:19.062500+00:00,-14,-3,66
2021-10-27 16:13:19.093750+00:00,-20,1,73
2021-10-27 16:13:19.125000+00:00,-24,2,72
2021-10-27 16:13:19.156250+00:00,-23,5,76
2021-10-27 16:13:19.187500+00:00,-22,7,78
2021-10-27 16:13:19.218750+00:00,-29,14,78
2021-10-27 16:13:19.250000+00:00,-24,16,74
2021-10-27 16:13:19.281250+00:00,-20,12,63
2021-10-27 16:13:19.312500+00:00,-17,11,62
2021-10-27 16:13:19.343750+00:00,-16,12,60
2021-10-27 16:13:19.375000+00:00,-13,11,49
2021-10-27 16:13:19.406250+00:00,-10,7,46
2021-10-27 16:13:19.437500+00:00,-9,4,46
2021-10-27 16:13:19.468750+00:00,-12,2,44
2021-10-27 16:13:19.500000+00:00,-15,-2,42
2021-10-27 16:13:19.531250+00:00,-15,-5,45
2021-10-27 16:13:19.562500+00:00,-16,-6,47
2021-10-27 16:13:19.593750+00:00,-18,-9,52
2021-10-27 16:13:19.625000+00:00,-21,-10,55
2021-10-27 16:13:19.656250+00:00,-23,-11,57
2021-10-27 16:13:19.687500+00:00,-25,-9,61
2021-10-27 16:13:19.718750+00:00,-32,-1,73
2021-10-27 16:13:19.750000+00:00,-35,-1,73
2021-10-27 16:13:19.781250+00:00,-38,-1,72
2021-10-27 16:13:19.812500+00:00,-38,2,76
2021-10-27 16:13:19.843750+00:00,-38,5,75
2021-10-27 16:13:19.875000+00:00,-40,7,66
2021-10-27 16:13:19.906250+00:00,-39,6,65
2021-10-27 16:13:19.937500+00:00,-32,6,62
2021-10-27 16:13:19.968750+00:00,-25,7,52
2021-10-27 16:13:20+00:00,-20,7,46
2021-10-27 16:13:20.031250+00:00,-14,7,40
2021-10-27 16:13:20.062500+00:00,-13,7,39
2021-10-27 16:13:20.093750+00:00,-18,5,38
2021-10-27 16:13:20.125000+00:00,-21,3,38
2021-10-27 16:13:20.156250+00:00,-21,3,44
2021-10-27 16:13:20.187500+00:00,-31,5,56
2021-10-27 16:13:20.218750+00:00,-32,5,57
2021-10-27 16:13:20.250000+00:00,-38,5,57
2021-10-27 16:13:20.281250+00:00,-42,6,58
2021-10-27 16:13:20.312500+00:00,-41,8,67
2021-10-27 16:13:20.343750+00:00,-40,7,68
2021-10-27 16:13:20.375000+00:00,-49,8,72
2021-10-27 16:13:20.406250+00:00,-50,12,70
2021-10-27 16:13:20.437500+00:00,-42,12,63
2021-10-27 16:13:20.468750+00:00,-30,9,59
2021-10-27 16:13:20.500000+00:00,-27,7,60
2021-10-27 16:13:20.531250+00:00,-27,7,53
2021-10-27 16:13:20.562500+00:00,-25,6,47
2021-10-27 16:13:20.593750+00:00,-20,4,41
2021-10-27 16:13:20.625000+00:00,-15,0,41
2021-10-27 16:13:20.656250+00:00,-15,-1,42
2021-10-27 16:13:20.687500+00:00,-23,-2,47
2021-10-27 16:13:20.718750+00:00,-24,-2,50
2021-10-27 16:13:20.750000+00:00,-28,-2,56
2021-10-27 16:13:20.781250+00:00,-30,-1,56
2021-10-27 16:13:20.812500+00:00,-30,-1,58
2021-10-27 16:13:20.843750+00:00,-33,3,60
2021-10-27 16:13:20.875000+00:00,-35,6,63
2021-10-27 16:13:20.906250+00:00,-40,5,62
2021-10-27 16:13:20.937500+00:00,-43,3,62
2021-10-27 16:13:20.968750+00:00,-52,3,67
2021-10-27 16:13:21+00:00,-51,9,61
2021-10-27 16:13:21.031250+00:00,-46,7,55
2021-10-27 16:13:21.062500+00:00,-34,2,52
2021-10-27 16:13:21.093750+00:00,-33,3,53
2021-10-27 16:13:21.125000+00:00,-34,6,48
2021-10-27 16:13:21.156250+00:00,-29,6,45
2021-10-27 16:13:21.187500+00:00,-22,5,40
2021-10-27 16:13:21.218750+00:00,-19,2,38
2021-10-27 16:13:21.250000+00:00,-25,-2,38
2021-10-27 16:13:21.281250+00:00,-29,-5,43
2021-10-27 16:13:21.312500+00:00,-37,-6,44
2021-10-27 16:13:21.343750+00:00,-50,-4,46
2021-10-27 16:13:21.375000+00:00,-49,-2,49
2021-10-27 16:13:21.406250+00:00,-44,-2,53
2021-10-27 16:13:21.437500+00:00,-43,-2,55
2021-10-27 16:13:21.468750+00:00,-46,1,56
2021-10-27 16:13:21.500000+00:00,-47,-1,62
2021-10-27 16:13:21.531250+00:00,-49,0,67
2021-10-27 16:13:21.562500+00:00,-41,8,66
2021-10-27 16:13:21.593750+00:00,-34,10,60
2021-10-27 16:13:21.625000+00:00,-21,3,56
2021-10-27 16:13:21.656250+00:00,-21,1,55
2021-10-27 16:13:21.687500+00:00,-33,7,56
2021-10-27 16:13:21.718750+00:00,-30,10,56
2021-10-27 16:13:21.750000+00:00,-24,9,54
2021-10-27 16:13:21.781250+00:00,-15,5,50
2021-10-27 16:13:21.812500+00:00,-13,4,48
2021-10-27 16:13:21.843750+00:00,-18,1,49
2021-10-27 16:13:21.875000+00:00,-24,-2,51
2021-10-27 16:13:21.906250+00:00,-25,-3,53
2021-10-27 16:13:21.937500+00:00,-29,-5,53
2021-10-27 16:13:21.968750+00:00,-31,-5,54
2021-10-27 16:13:22+00:00,-37,-4,57
2021-10-27 16:13:22.031250+00:00,-39,-6,57
2021-10-27 16:13:22.062500+00:00,-45,-11,60
2021-10-27 16:13:22.093750+00:00,-52,-11,66
2021-10-27 16:13:22.125000+00:00,-56,-6,64
2021-10-27 16:13:22.156250+00:00,-52,-6,54
2021-10-27 16:13:22.187500+00:00,-48,-8,53
2021-10-27 16:13:22.218750+00:00,-42,-9,50
2021-10-27 16:13:22.250000+00:00,-42,-6,46
2021-10-27 16:13:22.281250+00:00,-34,-3,43
2021-10-27 16:13:22.312500+00:00,-27,-2,40
2021-10-27 16:13:22.343750+00:00,-26,-3,39
2021-10-27 16:13:22.375000+00:00,-24,-5,39
2021-10-27 16:13:22.406250+00:00,-24,-5,40
2021-10-27 16:13:22.437500+00:00,-29,-5,45
2021-10-27 16:13:22.468750+00:00,-28,-3,48
2021-10-27 16:13:22.500000+00:00,-31,-4,53
2021-10-27 16:13:22.531250+00:00,-29,-4,62
2021-10-27 16:13:22.562500+00:00,-30,-1,65
2021-10-27 16:13:22.593750+00:00,-32,0,68
2021-10-27 16:13:22.625000+00:00,-31,1,72
2021-10-27 16:13:22.656250+00:00,-28,2,75
2021-10-27 16:13:22.687500+00:00,-34,7,73
2021-10-27 16:13:22.718750+00:00,-31,8,64
2021-10-27 16:13:22.750000+00:00,-28,3,59
2021-10-27 16:13:22.781250+00:00,-28,3,58
2021-10-27 16:13:22.812500+00:00,-28,2,51
2021-10-27 16:13:22.843750+00:00,-28,0,48
2021-10-27 16:13:22.875000+00:00,-23,-4,43
2021-10-27 16:13:22.906250+00:00,-21,-5,42
2021-10-27 16:13:22.937500+00:00,-23,-9,41
2021-10-27 16:13:22.968750+00:00,-23,-12,45
2021-10-27 16:13:23+00:00,-23,-12,47
2021-10-27 16:13:23.031250+00:00,-24,-11,50
2021-10-27 16:13:23.062500+00:00,-24,-10,52
2021-10-27 16:13:23.093750+00:00,-28,-11,54
2021-10-27 16:13:23.125000+00:00,-30,-10,57
2021-10-27 16:13:23.156250+00:00,-35,-8,61
2021-10-27 16:13:23.187500+00:00,-35,-10,64
2021-10-27 16:13:23.218750+00:00,-39,-12,64
2021-10-27 16:13:23.250000+00:00,-50,-12,71
2021-10-27 16:13:23.281250+00:00,-55,-4,72
2021-10-27 16:13:23.312500+00:00,-49,-3,61
2021-10-27 16:13:23.343750+00:00,-43,-5,59
2021-10-27 16:13:23.375000+00:00,-38,-7,56
2021-10-27 16:13:23.406250+00:00,-40,-7,47
2021-10-27 16:13:23.437500+00:00,-36,-5,45
2021-10-27 16:13:23.468750+00:00,-27,-4,42
2021-10-27 16:13:23.500000+00:00,-25,-4,39
2021-10-27 16:13:23.531250+00:00,-25,-6,36
2021-10-27 16:13:23.562500+00:00,-27,-7,37
2021-10-27 16:13:23.593750+00:00,-30,-10,42
2021-10-27 16:13:23.625000+00:00,-32,-10,47
2021-10-27 16:13:23.656250+00:00,-34,-11,48
2021-10-27 16:13:23.687500+00:00,-36,-14,52
2021-10-27 16:13:23.718750+00:00,-39,-13,54
2021-10-27 16:13:23.750000+00:00,-45,-9,57
2021-10-27 16:13:23.781250+00:00,-42,-10,62
2021-10-27 16:13:23.812500+00:00,-42,-7,69
2021-10-27 16:13:23.843750+00:00,-45,3,65
2021-10-27 16:13:23.875000+00:00,-37,3,60
2021-10-27 16:13:23.906250+00:00,-33,0,57
2021-10-27 16:13:23.937500+00:00,-32,1,58
2021-10-27 16:13:23.968750+00:00,-34,2,52
2021-10-27 16:13:24+00:00,-30,-2,45
2021-10-27 16:13:24.031250+00:00,-23,-4,43
2021-10-27 16:13:24.062500+00:00,-25,-7,40
2021-10-27 16:13:24.093750+00:00,-26,-10,40
2021-10-27 16:13:24.125000+00:00,-30,-14,42
2021-10-27 16:13:24.156250+00:00,-29,-15,44
2021-10-27 16:13:24.187500+00:00,-24,-14,50
2021-10-27 16:13:24.218750+00:00,-26,-11,51
2021-10-27 16:13:24.250000+00:00,-26,-10,53
2021-10-27 16:13:24.281250+00:00,-26,-10,61
2021-10-27 16:13:24.312500+00:00,-30,-8,63
2021-10-27 16:13:24.343750+00:00,-32,-7,62
2021-10-27 16:13:24.375000+00:00,-35,-12,60
2021-10-27 16:13:24.406250+00:00,-41,-16,61
2021-10-27 16:13:24.437500+00:00,-46,-11,64
2021-10-27 16:13:24.468750+00:00,-47,-7,58
2021-10-27 16:13:24.500000+00:00,-44,-10,54
2021-10-27 16:13:24.531250+00:00,-43,-10,56
2021-10-27 16:13:24.562500+00:00,-42,-10,48
2021-10-27 16:13:24.593750+00:00,-35,-8,45
2021-10-27 16:13:24.625000+00:00,-23,-5,42
2021-10-27 16:13:24.656250+00:00,-21,-4,40
2021-10-27 16:13:24.687500+00:00,-26,-4,39
2021-10-27 16:13:24.718750+00:00,-31,-8,39
2021-10-27 16:13:24.750000+00:00,-31,-10,42
2021-10-27 16:13:24.781250+00:00,-35,-9,50
2021-10-27 16:13:24.812500+00:00,-37,-7,54
2021-10-27 16:13:24.843750+00:00,-42,-7,56
2021-10-27 16:13:24.875000+00:00,-43,-7,58
2021-10-27 16:13:24.906250+00:00,-44,0,64
2021-10-27 16:13:24.937500+00:00,-40,1,65
2021-10-27 16:13:24.968750+00:00,-41,1,66
2021-10-27 16:13:25+00:00,-43,0,66
2021-10-27 16:13:25.031250+00:00,-49,1,62
2021-10-27 16:13:25.062500+00:00,-30,9,60
2021-10-27 16:13:25.093750+00:00,-24,9,59
2021-10-27 16:13:25.125000+00:00,-31,6,56
2021-10-27 16:13:25.156250+00:00,-27,5,49
2021-10-27 16:13:25.187500+00:00,-22,3,45
2021-10-27 16:13:25.218750+00:00,-24,1,41
2021-10-27 16:13:25.250000+00:00,-23,-1,43
2021-10-27 16:13:25.281250+00:00,-24,-5,44
2021-10-27 16:13:25.312500+00:00,-23,-7,45
2021-10-27 16:13:25.343750+00:00,-25,-13,46
2021-10-27 16:13:25.375000+00:00,-32,-15,49
2021-10-27 16:13:25.406250+00:00,-35,-15,49
2021-10-27 16:13:25.437500+00:00,-35,-17,48
2021-10-27 16:13:25.468750+00:00,-36,-14,51
2021-10-27 16:13:25.500000+00:00,-41,-7,60
2021-10-27 16:13:25.531250+00:00,-43,-3,61
2021-10-27 16:13:25.562500+00:00,-39,-8,63
2021-10-27 16:13:25.593750+00:00,-54,-10,65
2021-10-27 16:13:25.625000+00:00,-63,-5,64
2021-10-27 16:13:25.656250+00:00,-52,-1,59
2021-10-27 16:13:25.687500+00:00,-47,-5,56
2021-10-27 16:13:25.718750+00:00,-42,-9,55
2021-10-27 16:13:25.750000+00:00,-35,-8,55
2021-10-27 16:13:25.781250+00:00,-28,-3,41
2021-10-27 16:13:25.812500+00:00,-26,-2,38
2021-10-27 16:13:25.843750+00:00,-22,-1,38
2021-10-27 16:13:25.875000+00:00,-22,-2,38
2021-10-27 16:13:25.906250+00:00,-22,-3,38
2021-10-27 16:13:25.937500+00:00,-25,-4,44
2021-10-27 16:13:25.968750+00:00,-23,-3,48
2021-10-27 16:13:26+00:00,-26,0,55
2021-10-27 16:13:26.031250+00:00,-29,0,62
2021-10-27 16:13:26.062500+00:00,-36,1,64
2021-10-27 16:13:26.093750+00:00,-43,4,68
2021-10-27 16:13:26.125000+00:00,-40,4,71
2021-10-27 16:13:26.156250+00:00,-42,5,79
2021-10-27 16:13:26.187500+00:00,-44,10,77
2021-10-27 16:13:26.218750+00:00,-37,9,70
2021-10-27 16:13:26.250000+00:00,-32,5,58
2021-10-27 16:13:26.281250+00:00,-33,3,55
2021-10-27 16:13:26.312500+00:00,-33,4,48
2021-10-27 16:13:26.343750+00:00,-25,4,44
2021-10-27 16:13:26.375000+00:00,-16,2,40
2021-10-27 16:13:26.406250+00:00,-17,-2,40
2021-10-27 16:13:26.437500+00:00,-19,-5,39
2021-10-27 16:13:26.468750+00:00,-20,-9,40
2021-10-27 16:13:26.500000+00:00,-21,-10,43
2021-10-27 16:13:26.531250+00:00,-20,-11,50
2021-10-27 16:13:26.562500+00:00,-23,-12,54
2021-10-27 16:13:26.593750+00:00,-26,-13,56
2021-10-27 16:13:26.625000+00:00,-31,-10,58
2021-10-27 16:13:26.656250+00:00,-34,-6,60
2021-10-27 16:13:26.687500+00:00,-35,-5,61
2021-10-27 16:13:26.718750+00:00,-38,-9,62
2021-10-27 16:13:26.750000+00:00,-43,-14,66
2021-10-27 16:13:26.781250+00:00,-48,-11,66
2021-10-27 16:13:26.812500+00:00,-48,-3,64
2021-10-27 16:13:26.843750+00:00,-48,-8,62
2021-10-27 16:13:26.875000+00:00,-50,-8,60
2021-10-27 16:13:26.906250+00:00,-45,-3,54
2021-10-27 16:13:26.937500+00:00,-35,-1,51
2021-10-27 16:13:26.968750+00:00,-21,-1,46
2021-10-27 16:13:27+00:00,-18,-4,39
2021-10-27 16:13:27.031250+00:00,-17,-5,39
2021-10-27 16:13:27.062500+00:00,-21,-7,43
2021-10-27 16:13:27.093750+00:00,-24,-9,46
2021-10-27 16:13:27.125000+00:00,-29,-7,50
2021-10-27 16:13:27.156250+00:00,-29,-6,52
2021-10-27 16:13:27.187500+00:00,-26,-10,55
2021-10-27 16:13:27.218750+00:00,-27,-10,55
2021-10-27 16:13:27.250000+00:00,-32,-7,58
2021-10-27 16:13:27.281250+00:00,-37,-4,64
2021-10-27 16:13:27.312500+00:00,-38,-4,69
2021-10-27 16:13:27.343750+00:00,-39,-4,71
2021-10-27 16:13:27.375000+00:00,-39,3,70
2021-10-27 16:13:27.406250+00:00,-33,3,61
2021-10-27 16:13:27.437500+00:00,-28,1,59
2021-10-27 16:13:27.468750+00:00,-27,2,57
2021-10-27 16:13:27.500000+00:00,-27,3,52
2021-10-27 16:13:27.531250+00:00,-25,1,48
2021-10-27 16:13:27.562500+00:00,-18,-2,45
2021-10-27 16:13:27.593750+00:00,-16,-4,44
2021-10-27 16:13:27.625000+00:00,-24,-5,45
2021-10-27 16:13:27.656250+00:00,-23,-6,47
2021-10-27 16:13:27.687500+00:00,-21,-9,51
2021-10-27 16:13:27.718750+00:00,-22,-7,54
2021-10-27 16:13:27.750000+00:00,-21,-6,55
2021-10-27 16:13:27.781250+00:00,-21,-7,59
2021-10-27 16:13:27.812500+00:00,-21,-7,61
2021-10-27 16:13:27.843750+00:00,-24,-3,63
2021-10-27 16:13:27.875000+00:00,-27,-5,63
2021-10-27 16:13:27.906250+00:00,-35,-16,60
2021-10-27 16:13:27.937500+00:00,-45,-14,71
2021-10-27 16:13:27.968750+00:00,-48,-8,71
2021-10-27 16:13:28+00:00,-48,-4,59
2021-10-27 16:13:28.031250+00:00,-44,-4,59
2021-10-27 16:13:28.062500+00:00,-39,-5,60
2021-10-27 16:13:28.093750+00:00,-38,-3,56
2021-10-27 16:13:28.125000+00:00,-28,-2,47
2021-10-27 16:13:28.156250+00:00,-19,-4,41
2021-10-27 16:13:28.187500+00:00,-15,-4,41
2021-10-27 16:13:28.218750+00:00,-22,-5,41
2021-10-27 16:13:28.250000+00:00,-28,-4,41
2021-10-27 16:13:28.281250+00:00,-26,-6,49
2021-10-27 16:13:28.312500+00:00,-26,-6,53
2021-10-27 16:13:28.343750+00:00,-24,-6,56
2021-10-27 16:13:28.375000+00:00,-27,-6,58
2021-10-27 16:13:28.406250+00:00,-29,-5,62
2021-10-27 16:13:28.437500+00:00,-34,0,67
2021-10-27 16:13:28.468750+00:00,-27,0,66
2021-10-27 16:13:28.500000+00:00,-28,-1,66
2021-10-27 16:13:28.531250+00:00,-23,2,71
2021-10-27 16:13:28.562500+00:00,-27,1,72
2021-10-27 16:13:28.593750+00:00,-32,4,69
2021-10-27 16:13:28.625000+00:00,-31,6,64
2021-10-27 16:13:28.656250+00:00,-24,6,55
2021-10-27 16:13:28.687500+00:00,-25,5,53
2021-10-27 16:13:28.718750+00:00,-26,5,53
2021-10-27 16:13:28.750000+00:00,-26,2,52
2021-10-27 16:13:28.781250+00:00,-26,-1,50
2021-10-27 16:13:28.812500+00:00,-26,-3,48
2021-10-27 16:13:28.843750+00:00,-24,-2,48
2021-10-27 16:13:28.875000+00:00,-24,-8,45
2021-10-27 16:13:28.906250+00:00,-20,-7,46
2021-10-27 16:13:28.937500+00:00,-20,-10,48
2021-10-27 16:13:28.968750+00:00,-20,-6,52
2021-10-27 16:13:29+00:00,-26,-1,56
2021-10-27 16:13:29.031250+00:00,-24,-1,61
2021-10-27 16:13:29.062500+00:00,-23,-2,61
2021-10-27 16:13:29.093750+00:00,-28,-2,62
2021-10-27 16:13:29.125000+00:00,-27,1,64
2021-10-27 16:13:29.156250+00:00,-30,-1,62
2021-10-27 16:13:29.187500+00:00,-32,-7,58
2021-10-27 16:13:29.218750+00:00,-30,-12,60
2021-10-27 16:13:29.250000+00:00,-41,-2,67
2021-10-27 16:13:29.281250+00:00,-46,6,66
2021-10-27 16:13:29.312500+00:00,-39,5,71
2021-10-27 16:13:29.343750+00:00,-45,1,67
2021-10-27 16:13:29.375000+00:00,-44,4,52
2021-10-27 16:13:29.406250+00:00,-30,-6,51
2021-10-27 16:13:29.437500+00:00,-26,4,49
2021-10-27 16:13:29.468750+00:00,-29,1,40
2021-10-27 16:13:29.500000+00:00,-30,1,39
2021-10-27 16:13:29.531250+00:00,-30,-3,40
2021-10-27 16:13:29.562500+00:00,-30,-5,40
2021-10-27 16:13:29.593750+00:00,-32,-8,43
2021-10-27 16:13:29.625000+00:00,-33,-8,45
2021-10-27 16:13:29.656250+00:00,-36,-8,49
2021-10-27 16:13:29.687500+00:00,-39,-10,50
2021-10-27 16:13:29.718750+00:00,-38,-10,52
2021-10-27 16:13:29.750000+00:00,-42,-8,56
2021-10-27 16:13:29.781250+00:00,-44,-5,57
2021-10-27 16:13:29.812500+00:00,-41,-3,59
2021-10-27 16:13:29.843750+00:00,-43,-1,59
2021-10-27 16:13:29.875000+00:00,-39,-3,59
2021-10-27 16:13:29.906250+00:00,-45,6,63
2021-10-27 16:13:29.937500+00:00,-46,13,63
2021-10-27 16:13:29.968750+00:00,-32,15,55
2021-10-27 16:13:30+00:00,-22,9,49
2021-10-27 16:13:30.031250+00:00,-22,8,48
2021-10-27 16:13:30.062500+00:00,-26,8,48
2021-10-27 16:13:30.093750+00:00,-34,9,47
2021-10-27 16:13:30.125000+00:00,-35,3,43
2021-10-27 16:13:30.156250+00:00,-34,0,41
2021-10-27 16:13:30.187500+00:00,-37,-2,41
2021-10-27 16:13:30.218750+00:00,-37,-4,43
2021-10-27 16:13:30.250000+00:00,-35,-7,46
2021-10-27 16:13:30.281250+00:00,-43,-4,45
2021-10-27 16:13:30.312500+00:00,-42,-3,46
2021-10-27 16:13:30.343750+00:00,-39,-2,50
2021-10-27 16:13:30.375000+00:00,-39,-3,51
2021-10-27 16:13:30.406250+00:00,-38,-5,54
2021-10-27 16:13:30.437500+00:00,-42,-3,55
2021-10-27 16:13:30.468750+00:00,-48,-1,53
2021-10-27 16:13:30.500000+00:00,-50,-2,53
2021-10-27 16:13:30.531250+00:00,-48,-4,55
2021-10-27 16:13:30.562500+00:00,-53,-5,59
2021-10-27 16:13:30.593750+00:00,-56,-1,61
2021-10-27 16:13:30.625000+00:00,-56,6,55
2021-10-27 16:13:30.656250+00:00,-49,2,51
2021-10-27 16:13:30.687500+00:00,-35,2,53
2021-10-27 16:13:30.718750+00:00,-39,10,52
2021-10-27 16:13:30.750000+00:00,-34,10,46
2021-10-27 16:13:30.781250+00:00,-24,7,39
2021-10-27 16:13:30.812500+00:00,-18,5,41
2021-10-27 16:13:30.843750+00:00,-22,9,40
2021-10-27 16:13:30.875000+00:00,-23,5,43
2021-10-27 16:13:30.906250+00:00,-22,2,38
2021-10-27 16:13:30.937500+00:00,-16,2,34
2021-10-27 16:13:30.968750+00:00,-11,3,29
2021-10-27 16:13:31+00:00,-14,15,26
2021-10-27 16:13:31.031250+00:00,-31,29,35
2021-10-27 16:13:31.062500+00:00,-31,39,37
2021-10-27 16:13:31.093750+00:00,-24,41,33
2021-10-27 16:13:31.125000+00:00,-40,61,43
2021-10-27 16:13:31.156250+00:00,-32,69,48
2021-10-27 16:13:31.187500+00:00,-40,71,50
2021-10-27 16:13:31.218750+00:00,-47,76,54
2021-10-27 16:13:31.250000+00:00,-35,70,55
2021-10-27 16:13:31.281250+00:00,-27,62,56
2021-10-27 16:13:31.312500+00:00,-27,56,57
2021-10-27 16:13:31.343750+00:00,-27,43,50
2021-10-27 16:13:31.375000+00:00,-24,36,42
2021-10-27 16:13:31.406250+00:00,-21,34,40
2021-10-27 16:13:31.437500+00:00,-18,26,36
2021-10-27 16:13:31.468750+00:00,-19,24,36
2021-10-27 16:13:31.500000+00:00,-24,24,34
2021-10-27 16:13:31.531250+00:00,-23,23,33
2021-10-27 16:13:31.562500+00:00,-27,31,35
2021-10-27 16:13:31.593750+00:00,-30,40,41
2021-10-27 16:13:31.625000+00:00,-31,44,42
2021-10-27 16:13:31.656250+00:00,-35,50,44
2021-10-27 16:13:31.687500+00:00,-36,54,43
2021-10-27 16:13:31.718750+00:00,-34,56,41
2021-10-27 16:13:31.750000+00:00,-34,56,38
2021-10-27 16:13:31.781250+00:00,-31,52,42
2021-10-27 16:13:31.812500+00:00,-50,55,53
2021-10-27 16:13:31.843750+00:00,-59,60,61
2021-10-27 16:13:31.875000+00:00,-40,45,57
2021-10-27 16:13:31.906250+00:00,-35,32,48
2021-10-27 16:13:31.937500+00:00,-38,18,48
2021-10-27 16:13:31.968750+00:00,-41,16,49
2021-10-27 16:13:32+00:00,-31,12,44
2021-10-27 16:13:32.031250+00:00,-23,7,38
2021-10-27 16:13:32.062500+00:00,-21,4,32
2021-10-27 16:13:32.093750+00:00,-27,3,29
2021-10-27 16:13:32.125000+00:00,-28,3,30
2021-10-27 16:13:32.156250+00:00,-32,-1,28
2021-10-27 16:13:32.187500+00:00,-34,-3,30
2021-10-27 16:13:32.218750+00:00,-37,0,40
2021-10-27 16:13:32.250000+00:00,-30,5,50
2021-10-27 16:13:32.281250+00:00,-29,7,53
2021-10-27 16:13:32.312500+00:00,-27,6,56
2021-10-27 16:13:32.343750+00:00,-29,1,57
2021-10-27 16:13:32.375000+00:00,-65,25,82
2021-10-27 16:13:32.406250+00:00,-58,34,88
2021-10-27 16:13:32.437500+00:00,-32,32,81
2021-10-27 16:13:32.468750+00:00,-41,27,74
2021-10-27 16:13:32.500000+00:00,-43,24,65
2021-10-27 16:13:32.531250+00:00,-25,17,57
2021-10-27 16:13:32.562500+00:00,-19,14,52
2021-10-27 16:13:32.593750+00:00,-14,10,40
2021-10-27 16:13:32.625000+00:00,-15,9,36
2021-10-27 16:13:32.656250+00:00,-17,7,36
2021-10-27 16:13:32.687500+00:00,-26,8,37
2021-10-27 16:13:32.718750+00:00,-29,6,39
2021-10-27 16:13:32.750000+00:00,-33,6,44
2021-10-27 16:13:32.781250+00:00,-34,7,44
2021-10-27 16:13:32.812500+00:00,-33,8,41
2021-10-27 16:13:32.843750+00:00,-34,9,41
2021-10-27 16:13:32.875000+00:00,-33,12,45
2021-10-27 16:13:32.906250+00:00,-37,13,48
2021-10-27 16:13:32.937500+00:00,-44,14,50
2021-10-27 16:13:32.968750+00:00,-47,10,59
2021-10-27 16:13:33+00:00,-55,3,63
2021-10-27 16:13:33.031250+00:00,-74,14,75
2021-10-27 16:13:33.062500+00:00,-76,24,75
2021-10-27 16:13:33.093750+00:00,-59,13,58
2021-10-27 16:13:33.125000+00:00,-40,4,55
2021-10-27 16:13:33.156250+00:00,-36,4,55
2021-10-27 16:13:33.187500+00:00,-37,3,43
2021-10-27 16:13:33.218750+00:00,-35,2,39
2021-10-27 16:13:33.250000+00:00,-25,-3,38
2021-10-27 16:13:33.281250+00:00,-23,-6,36
2021-10-27 16:13:33.312500+00:00,-31,-8,32
2021-10-27 16:13:33.343750+00:00,-38,-3,39
2021-10-27 16:13:33.375000+00:00,-43,0,43
2021-10-27 16:13:33.406250+00:00,-41,5,43
2021-10-27 16:13:33.437500+00:00,-34,5,40
2021-10-27 16:13:33.468750+00:00,-31,3,38
2021-10-27 16:13:33.500000+00:00,-27,1,38
2021-10-27 16:13:33.531250+00:00,-36,-3,42
2021-10-27 16:13:33.562500+00:00,-42,-3,47
2021-10-27 16:13:33.593750+00:00,-46,2,50
2021-10-27 16:13:33.625000+00:00,-43,10,58
2021-10-27 16:13:33.656250+00:00,-46,3,60
2021-10-27 16:13:33.687500+00:00,-61,18,72
2021-10-27 16:13:33.718750+00:00,-60,33,78
2021-10-27 16:13:33.750000+00:00,-55,21,67
2021-10-27 16:13:33.781250+00:00,-41,21,72
2021-10-27 16:13:33.812500+00:00,-39,23,69
2021-10-27 16:13:33.843750+00:00,-36,19,54
2021-10-27 16:13:33.875000+00:00,-32,17,49
2021-10-27 16:13:33.906250+00:00,-23,11,42
2021-10-27 16:13:33.937500+00:00,-20,9,37
2021-10-27 16:13:33.968750+00:00,-20,6,30
2021-10-27 16:13:34+00:00,-22,6,31
2021-10-27 16:13:34.031250+00:00,-23,6,32
2021-10-27 16:13:34.062500+00:00,-28,8,34
2021-10-27 16:13:34.093750+00:00,-32,8,36
2021-10-27 16:13:34.125000+00:00,-35,11,39
2021-10-27 16:13:34.156250+00:00,-40,15,42
2021-10-27 16:13:34.187500+00:00,-44,20,49
2021-10-27 16:13:34.218750+00:00,-52,16,51
2021-10-27 16:13:34.250000+00:00,-60,6,55
2021-10-27 16:13:34.281250+00:00,-75,14,67
2021-10-27 16:13:34.312500+00:00,-76,28,66
2021-10-27 16:13:34.343750+00:00,-54,12,52
2021-10-27 16:13:34.375000+00:00,-44,4,49
2021-10-27 16:13:34.406250+00:00,-27,-5,43
2021-10-27 16:13:34.437500+00:00,-34,-1,39
2021-10-27 16:13:34.468750+00:00,-35,3,40
2021-10-27 16:13:34.500000+00:00,-25,5,39
2021-10-27 16:13:34.531250+00:00,-22,4,36
2021-10-27 16:13:34.562500+00:00,-22,4,32
2021-10-27 16:13:34.593750+00:00,-25,8,33
2021-10-27 16:13:34.625000+00:00,-34,14,36
2021-10-27 16:13:34.656250+00:00,-44,23,47
2021-10-27 16:13:34.687500+00:00,-45,30,50
2021-10-27 16:13:34.718750+00:00,-52,30,51
2021-10-27 16:13:34.750000+00:00,-45,30,52
2021-10-27 16:13:34.781250+00:00,-37,48,62
2021-10-27 16:13:34.812500+00:00,-44,46,61
2021-10-27 16:13:34.843750+00:00,-49,45,57
2021-10-27 16:13:34.875000+00:00,-55,58,62
2021-10-27 16:13:34.906250+00:00,-52,59,62
2021-10-27 16:13:34.937500+00:00,-40,39,48
2021-10-27 16:13:34.968750+00:00,-34,28,42
2021-10-27 16:13:35+00:00,-24,18,37
2021-10-27 16:13:35.031250+00:00,-30,19,33
2021-10-27 16:13:35.062500+00:00,-31,18,33
2021-10-27 16:13:35.093750+00:00,-36,20,34
2021-10-27 16:13:35.125000+00:00,-38,23,34
2021-10-27 16:13:35.156250+00:00,-39,25,34
2021-10-27 16:13:35.187500+00:00,-48,27,35
2021-10-27 16:13:35.218750+00:00,-48,29,40
2021-10-27 16:13:35.250000+00:00,-58,22,55
2021-10-27 16:13:35.281250+00:00,-65,22,62
2021-10-27 16:13:35.312500+00:00,-67,25,60
2021-10-27 16:13:35.343750+00:00,-59,22,56
2021-10-27 16:13:35.375000+00:00,-44,16,53
2021-10-27 16:13:35.406250+00:00,-40,15,53
2021-10-27 16:13:35.437500+00:00,-21,15,53
2021-10-27 16:13:35.468750+00:00,-10,11,39
2021-10-27 16:13:35.500000+00:00,-5,13,45
2021-10-27 16:13:35.531250+00:00,-9,12,37
2021-10-27 16:13:35.562500+00:00,-9,16,35
2021-10-27 16:13:35.593750+00:00,-20,4,27
2021-10-27 16:13:35.625000+00:00,-27,6,28
2021-10-27 16:13:35.656250+00:00,-30,13,47
2021-10-27 16:13:35.687500+00:00,-8,12,51
2021-10-27 16:13:35.718750+00:00,-4,12,53
2021-10-27 16:13:35.750000+00:00,-29,21,45
2021-10-27 16:13:35.781250+00:00,-24,18,39
2021-10-27 16:13:35.812500+00:00,-10,28,31
2021-10-27 16:13:35.843750+00:00,-13,43,23
2021-10-27 16:13:35.875000+00:00,-38,71,33
2021-10-27 16:13:35.906250+00:00,-28,77,28
2021-10-27 16:13:35.937500+00:00,-22,78,26
2021-10-27 16:13:35.968750+00:00,-42,86,38
2021-10-27 16:13:36+00:00,-47,83,51
2021-10-27 16:13:36.031250+00:00,-29,52,36
2021-10-27 16:13:36.062500+00:00,-32,44,36
2021-10-27 16:13:36.093750+00:00,-32,32,41
2021-10-27 16:13:36.125000+00:00,-31,35,40
2021-10-27 16:13:36.156250+00:00,-29,33,37
2021-10-27 16:13:36.187500+00:00,-30,38,32
2021-10-27 16:13:36.218750+00:00,-31,49,30
2021-10-27 16:13:36.250000+00:00,-30,95,32
2021-10-27 16:13:36.281250+00:00,-30,127,34
2021-10-27 16:13:36.312500+00:00,-30,127,15
2021-10-27 16:13:36.343750+00:00,-17,117,2
2021-10-27 16:13:36.375000+00:00,-13,111,2
2021-10-27 16:13:36.406250+00:00,-13,88,9
2021-10-27 16:13:36.437500+00:00,-14,73,16
2021-10-27 16:13:36.468750+00:00,-19,47,27
2021-10-27 16:13:36.500000+00:00,-21,38,25
2021-10-27 16:13:36.531250+00:00,-17,28,15
2021-10-27 16:13:36.562500+00:00,-10,22,12
2021-10-27 16:13:36.593750+00:00,-8,21,11
2021-10-27 16:13:36.625000+00:00,-3,21,13
2021-10-27 16:13:36.656250+00:00,0,26,13
2021-10-27 16:13:36.687500+00:00,4,41,10
2021-10-27 16:13:36.718750+00:00,6,50,5
2021-10-27 16:13:36.750000+00:00,3,76,-6
2021-10-27 16:13:36.781250+00:00,-46,113,-13
2021-10-27 16:13:36.812500+00:00,-44,102,-9
2021-10-27 16:13:36.843750+00:00,-22,93,12
2021-10-27 16:13:36.875000+00:00,-19,103,21
2021-10-27 16:13:36.906250+00:00,-33,103,29
2021-10-27 16:13:36.937500+00:00,-39,94,20
2021-10-27 16:13:36.968750+00:00,-40,72,9
2021-10-27 16:13:37+00:00,-26,41,21
2021-10-27 16:13:37.031250+00:00,-20,36,26
2021-10-27 16:13:37.062500+00:00,-19,30,28
2021-10-27 16:13:37.093750+00:00,-18,27,24
2021-10-27 16:13:37.125000+00:00,-17,22,14
2021-10-27 16:13:37.156250+00:00,-19,22,8
2021-10-27 16:13:37.187500+00:00,-27,39,4
2021-10-27 16:13:37.218750+00:00,-33,75,7
2021-10-27 16:13:37.250000+00:00,-32,96,9
2021-10-27 16:13:37.281250+00:00,-23,112,3
2021-10-27 16:13:37.312500+00:00,-15,123,-3
2021-10-27 16:13:37.343750+00:00,-11,127,0
2021-10-27 16:13:37.375000+00:00,-12,127,-1
2021-10-27 16:13:37.406250+00:00,-18,98,-4
2021-10-27 16:13:37.437500+00:00,-26,78,-4
2021-10-27 16:13:37.468750+00:00,-30,70,1
2021-10-27 16:13:37.500000+00:00,-24,50,4
2021-10-27 16:13:37.531250+00:00,-18,41,5
2021-10-27 16:13:37.562500+00:00,-9,31,7
2021-10-27 16:13:37.593750+00:00,-3,27,9
2021-10-27 16:13:37.625000+00:00,7,20,11
2021-10-27 16:13:37.656250+00:00,10,19,12
2021-10-27 16:13:37.687500+00:00,10,23,12
2021-10-27 16:13:37.718750+00:00,6,35,12
2021-10-27 16:13:37.750000+00:00,5,43,10
2021-10-27 16:13:37.781250+00:00,5,89,-3
2021-10-27 16:13:37.812500+00:00,-5,110,-6
2021-10-27 16:13:37.843750+00:00,-21,117,-8
2021-10-27 16:13:37.875000+00:00,-40,127,28
2021-10-27 16:13:37.906250+00:00,-50,127,37
2021-10-27 16:13:37.937500+00:00,-29,105,12
2021-10-27 16:13:37.968750+00:00,-24,89,2
2021-10-27 16:13:38+00:00,-27,57,7
2021-10-27 16:13:38.031250+00:00,-15,45,12
2021-10-27 16:13:38.062500+00:00,-16,44,16
2021-10-27 16:13:38.093750+00:00,-23,41,12
2021-10-27 16:13:38.125000+00:00,-24,38,12
2021-10-27 16:13:38.156250+00:00,-34,46,11
2021-10-27 16:13:38.187500+00:00,-38,49,9
2021-10-27 16:13:38.218750+00:00,-41,57,7
2021-10-27 16:13:38.250000+00:00,-37,65,7
2021-10-27 16:13:38.281250+00:00,-23,74,6
2021-10-27 16:13:38.312500+00:00,-14,64,2
2021-10-27 16:13:38.343750+00:00,-12,70,-1
2021-10-27 16:13:38.375000+00:00,-15,98,-7
2021-10-27 16:13:38.406250+00:00,-19,109,-7
2021-10-27 16:13:38.437500+00:00,-23,106,-8
2021-10-27 16:13:38.468750+00:00,-22,112,-9
2021-10-27 16:13:38.500000+00:00,-11,127,-10
2021-10-27 16:13:38.531250+00:00,-6,118,-5
2021-10-27 16:13:38.562500+00:00,-9,110,-2
2021-10-27 16:13:38.593750+00:00,-12,93,2
2021-10-27 16:13:38.625000+00:00,-12,87,3
2021-10-27 16:13:38.656250+00:00,-6,71,5
2021-10-27 16:13:38.687500+00:00,-1,59,6
2021-10-27 16:13:38.718750+00:00,3,51,6
2021-10-27 16:13:38.750000+00:00,6,37,4
2021-10-27 16:13:38.781250+00:00,6,33,4
2021-10-27 16:13:38.812500+00:00,4,21,9
2021-10-27 16:13:38.843750+00:00,0,21,10
2021-10-27 16:13:38.875000+00:00,-4,22,9
2021-10-27 16:13:38.906250+00:00,-4,28,6
2021-10-27 16:13:38.937500+00:00,-3,32,4
2021-10-27 16:13:38.968750+00:00,-3,42,2
2021-10-27 16:13:39+00:00,-3,51,1
2021-10-27 16:13:39.031250+00:00,-6,76,-1
2021-10-27 16:13:39.062500+00:00,-9,91,-3
2021-10-27 16:13:39.093750+00:00,-21,122,-2
2021-10-27 16:13:39.125000+00:00,-29,127,-3
2021-10-27 16:13:39.156250+00:00,-25,127,-13
2021-10-27 16:13:39.187500+00:00,-40,127,-9
2021-10-27 16:13:39.218750+00:00,-51,127,3
2021-10-27 16:13:39.250000+00:00,-48,70,32
2021-10-27 16:13:39.281250+00:00,-30,70,39
2021-10-27 16:13:39.312500+00:00,-20,73,34
2021-10-27 16:13:39.343750+00:00,-18,56,23
2021-10-27 16:13:39.375000+00:00,-19,48,17
2021-10-27 16:13:39.406250+00:00,-23,36,10
2021-10-27 16:13:39.437500+00:00,-25,31,8
2021-10-27 16:13:39.468750+00:00,-27,27,5
2021-10-27 16:13:39.500000+00:00,-27,29,3
2021-10-27 16:13:39.531250+00:00,-23,40,4
2021-10-27 16:13:39.562500+00:00,-21,55,8
2021-10-27 16:13:39.593750+00:00,-22,61,8
2021-10-27 16:13:39.625000+00:00,-17,69,5
2021-10-27 16:13:39.656250+00:00,-15,71,4
2021-10-27 16:13:39.687500+00:00,-11,69,1
2021-10-27 16:13:39.718750+00:00,-10,68,0
2021-10-27 16:13:39.750000+00:00,-11,75,-1
2021-10-27 16:13:39.781250+00:00,-12,89,1
2021-10-27 16:13:39.812500+00:00,-11,102,3
2021-10-27 16:13:39.843750+00:00,-10,127,2
2021-10-27 16:13:39.875000+00:00,-14,107,0
2021-10-27 16:13:39.906250+00:00,-11,79,2
2021-10-27 16:13:39.937500+00:00,-5,72,6
2021-10-27 16:13:39.968750+00:00,-2,68,7
2021-10-27 16:13:40+00:00,-10,57,9
2021-10-27 16:13:40.031250+00:00,-18,51,11
2021-10-27 16:13:40.062500+00:00,-23,39,10
2021-10-27 16:13:40.093750+00:00,-19,37,9
2021-10-27 16:13:40.125000+00:00,-12,40,7
2021-10-27 16:13:40.156250+00:00,-12,42,7
2021-10-27 16:13:40.187500+00:00,-16,44,8
2021-10-27 16:13:40.218750+00:00,-16,50,7
2021-10-27 16:13:40.250000+00:00,-15,57,5
2021-10-27 16:13:40.281250+00:00,-12,71,-1
2021-10-27 16:13:40.312500+00:00,-11,74,-3
2021-10-27 16:13:40.343750+00:00,-20,77,1
2021-10-27 16:13:40.375000+00:00,-24,73,3
2021-10-27 16:13:40.406250+00:00,-20,83,-1
2021-10-27 16:13:40.437500+00:00,-36,97,0
2021-10-27 16:13:40.468750+00:00,-39,85,6
2021-10-27 16:13:40.500000+00:00,-39,71,22
2021-10-27 16:13:40.531250+00:00,-35,75,21
2021-10-27 16:13:40.562500+00:00,-19,79,11
2021-10-27 16:13:40.593750+00:00,-14,72,11
2021-10-27 16:13:40.625000+00:00,-10,57,15
2021-10-27 16:13:40.656250+00:00,-12,37,14
2021-10-27 16:13:40.687500+00:00,-12,31,13
2021-10-27 16:13:40.718750+00:00,-18,28,9
2021-10-27 16:13:40.750000+00:00,-21,30,6
2021-10-27 16:13:40.781250+00:00,-20,39,3
2021-10-27 16:13:40.812500+00:00,-18,45,4
2021-10-27 16:13:40.843750+00:00,-17,59,8
2021-10-27 16:13:40.875000+00:00,-13,69,8
2021-10-27 16:13:40.906250+00:00,-11,70,9
2021-10-27 16:13:40.937500+00:00,-5,80,9
2021-10-27 16:13:40.968750+00:00,0,87,8
2021-10-27 16:13:41+00:00,8,122,1
2021-10-27 16:13:41.031250+00:00,1,127,-2
2021-10-27 16:13:41.062500+00:00,-14,95,-6
2021-10-27 16:13:41.093750+00:00,-14,74,2
2021-10-27 16:13:41.125000+00:00,-16,71,6
2021-10-27 16:13:41.156250+00:00,-24,65,16
2021-10-27 16:13:41.187500+00:00,-29,59,17
2021-10-27 16:13:41.218750+00:00,-31,43,13
2021-10-27 16:13:41.250000+00:00,-24,37,11
2021-10-27 16:13:41.281250+00:00,-11,32,10
2021-10-27 16:13:41.312500+00:00,-9,34,8
2021-10-27 16:13:41.343750+00:00,-10,39,7
2021-10-27 16:13:41.375000+00:00,-15,56,5
2021-10-27 16:13:41.406250+00:00,-16,65,3
2021-10-27 16:13:41.437500+00:00,-14,66,-1
2021-10-27 16:13:41.468750+00:00,-18,60,-2
2021-10-27 16:13:41.500000+00:00,-26,71,-4
2021-10-27 16:13:41.531250+00:00,-30,79,-7
2021-10-27 16:13:41.562500+00:00,-32,84,-9
2021-10-27 16:13:41.593750+00:00,-35,93,-4
2021-10-27 16:13:41.625000+00:00,-38,85,4
2021-10-27 16:13:41.656250+00:00,-32,76,16
2021-10-27 16:13:41.687500+00:00,-28,72,15
2021-10-27 16:13:41.718750+00:00,-19,66,15
2021-10-27 16:13:41.750000+00:00,-16,56,18
2021-10-27 16:13:41.781250+00:00,-14,50,20
2021-10-27 16:13:41.812500+00:00,-18,42,18
2021-10-27 16:13:41.843750+00:00,-20,40,17
2021-10-27 16:13:41.875000+00:00,-21,40,11
2021-10-27 16:13:41.906250+00:00,-18,41,7
2021-10-27 16:13:41.937500+00:00,-12,49,4
2021-10-27 16:13:41.968750+00:00,-8,60,7
2021-10-27 16:13:42+00:00,-6,66,8
2021-10-27 16:13:42.031250+00:00,-2,90,8
2021-10-27 16:13:42.062500+00:00,1,96,5
2021-10-27 16:13:42.093750+00:00,13,115,-3
2021-10-27 16:13:42.125000+00:00,9,127,-5
2021-10-27 16:13:42.156250+00:00,-6,98,-11
2021-10-27 16:13:42.187500+00:00,-8,81,-9
2021-10-27 16:13:42.218750+00:00,-12,82,-8
2021-10-27 16:13:42.250000+00:00,-24,80,-3
2021-10-27 16:13:42.281250+00:00,-29,75,-2
2021-10-27 16:13:42.312500+00:00,-38,62,-7
2021-10-27 16:13:42.343750+00:00,-35,52,-10
2021-10-27 16:13:42.375000+00:00,-24,42,-6
2021-10-27 16:13:42.406250+00:00,-12,42,6
2021-10-27 16:13:42.437500+00:00,-8,42,9
2021-10-27 16:13:42.468750+00:00,-7,47,9
2021-10-27 16:13:42.500000+00:00,-13,52,7
2021-10-27 16:13:42.531250+00:00,-19,66,-2
2021-10-27 16:13:42.562500+00:00,-23,69,-4
2021-10-27 16:13:42.593750+00:00,-30,76,-5
2021-10-27 16:13:42.625000+00:00,-27,83,-9
2021-10-27 16:13:42.656250+00:00,-30,100,-6
2021-10-27 16:13:42.687500+00:00,-37,105,5
2021-10-27 16:13:42.718750+00:00,-35,89,12
2021-10-27 16:13:42.750000+00:00,-34,88,23
2021-10-27 16:13:42.781250+00:00,-29,94,16
2021-10-27 16:13:42.812500+00:00,-16,88,15
2021-10-27 16:13:42.843750+00:00,-12,70,13
2021-10-27 16:13:42.875000+00:00,-8,60,14
2021-10-27 16:13:42.906250+00:00,-6,43,18
2021-10-27 16:13:42.937500+00:00,-8,39,18
2021-10-27 16:13:42.968750+00:00,-11,39,17
2021-10-27 16:13:43+00:00,-10,38,8
2021-10-27 16:13:43.031250+00:00,-10,43,7
2021-10-27 16:13:43.062500+00:00,-10,48,8
2021-10-27 16:13:43.093750+00:00,-10,49,7
2021-10-27 16:13:43.125000+00:00,-6,62,9
2021-10-27 16:13:43.156250+00:00,-6,70,8
2021-10-27 16:13:43.187500+00:00,-3,87,6
2021-10-27 16:13:43.218750+00:00,-3,109,1
2021-10-27 16:13:43.250000+00:00,-7,109,-3
2021-10-27 16:13:43.281250+00:00,-14,95,-14
2021-10-27 16:13:43.312500+00:00,-13,89,-16
2021-10-27 16:13:43.343750+00:00,-22,88,-12
2021-10-27 16:13:43.375000+00:00,-32,84,-3
2021-10-27 16:13:43.406250+00:00,-47,66,3
2021-10-27 16:13:43.437500+00:00,-45,53,-2
2021-10-27 16:13:43.468750+00:00,-36,40,-4
2021-10-27 16:13:43.500000+00:00,-25,37,2
2021-10-27 16:13:43.531250+00:00,-23,38,5
2021-10-27 16:13:43.562500+00:00,-15,56,3
2021-10-27 16:13:43.593750+00:00,-15,68,1
2021-10-27 16:13:43.625000+00:00,-21,88,-1
2021-10-27 16:13:43.656250+00:00,-28,82,-5
2021-10-27 16:13:43.687500+00:00,-28,77,-7
2021-10-27 16:13:43.718750+00:00,-35,82,-8
2021-10-27 16:13:43.750000+00:00,-40,89,-4
2021-10-27 16:13:43.781250+00:00,-43,93,3
2021-10-27 16:13:43.812500+00:00,-38,86,7
2021-10-27 16:13:43.843750+00:00,-24,73,8
2021-10-27 16:13:43.875000+00:00,-12,69,12
2021-10-27 16:13:43.906250+00:00,-10,63,16
2021-10-27 16:13:43.937500+00:00,-9,44,18
2021-10-27 16:13:43.968750+00:00,-10,38,17
2021-10-27 16:13:44+00:00,-14,33,16
2021-10-27 16:13:44.031250+00:00,-15,31,15
2021-10-27 16:13:44.062500+00:00,-17,34,11
2021-10-27 16:13:44.093750+00:00,-15,43,9
2021-10-27 16:13:44.125000+00:00,-12,50,10
2021-10-27 16:13:44.156250+00:00,-8,72,11
2021-10-27 16:13:44.187500+00:00,-5,88,10
2021-10-27 16:13:44.218750+00:00,2,94,5
2021-10-27 16:13:44.250000+00:00,7,100,1
2021-10-27 16:13:44.281250+00:00,2,115,-2
2021-10-27 16:13:44.312500+00:00,-8,97,-8
2021-10-27 16:13:44.343750+00:00,-12,89,-11
2021-10-27 16:13:44.375000+00:00,-20,80,-12
2021-10-27 16:13:44.406250+00:00,-23,72,-8
2021-10-27 16:13:44.437500+00:00,-36,57,3
2021-10-27 16:13:44.468750+00:00,-41,49,3
2021-10-27 16:13:44.500000+00:00,-34,33,-3
2021-10-27 16:13:44.531250+00:00,-21,32,-3
2021-10-27 16:13:44.562500+00:00,-16,35,-1
2021-10-27 16:13:44.593750+00:00,-13,51,4
2021-10-27 16:13:44.625000+00:00,-10,58,6
2021-10-27 16:13:44.656250+00:00,-6,70,3
2021-10-27 16:13:44.687500+00:00,-9,74,2
2021-10-27 16:13:44.718750+00:00,-14,87,0
2021-10-27 16:13:44.750000+00:00,-14,86,-3
2021-10-27 16:13:44.781250+00:00,-15,92,0
2021-10-27 16:13:44.812500+00:00,-20,98,11
2021-10-27 16:13:44.843750+00:00,-14,88,17
2021-10-27 16:13:44.875000+00:00,2,70,27
2021-10-27 16:13:44.906250+00:00,10,64,28
2021-10-27 16:13:44.937500+00:00,19,56,23
2021-10-27 16:13:44.968750+00:00,11,44,15
2021-10-27 16:13:45+00:00,2,39,13
2021-10-27 16:13:45.031250+00:00,-13,31,13
2021-10-27 16:13:45.062500+00:00,-17,28,14
2021-10-27 16:13:45.093750+00:00,-15,27,12
2021-10-27 16:13:45.125000+00:00,-14,31,10
2021-10-27 16:13:45.156250+00:00,-14,50,8
2021-10-27 16:13:45.187500+00:00,-13,69,7
2021-10-27 16:13:45.218750+00:00,-14,70,7
2021-10-27 16:13:45.250000+00:00,-15,67,5
2021-10-27 16:13:45.281250+00:00,-17,78,4
2021-10-27 16:13:45.312500+00:00,-14,120,-2
2021-10-27 16:13:45.343750+00:00,-18,127,2
2021-10-27 16:13:45.375000+00:00,-21,112,1
2021-10-27 16:13:45.406250+00:00,-14,100,2
2021-10-27 16:13:45.437500+00:00,-13,103,6
2021-10-27 16:13:45.468750+00:00,-13,92,14
2021-10-27 16:13:45.500000+00:00,-16,77,14
2021-10-27 16:13:45.531250+00:00,-19,49,13
2021-10-27 16:13:45.562500+00:00,-16,42,13
2021-10-27 16:13:45.593750+00:00,-8,34,8
2021-10-27 16:13:45.625000+00:00,-3,29,7
2021-10-27 16:13:45.656250+00:00,-3,28,6
2021-10-27 16:13:45.687500+00:00,-1,34,6
2021-10-27 16:13:45.718750+00:00,0,43,6
2021-10-27 16:13:45.750000+00:00,1,58,-3
2021-10-27 16:13:45.781250+00:00,-11,74,-20
2021-10-27 16:13:45.812500+00:00,-5,83,-21
2021-10-27 16:13:45.843750+00:00,-14,101,-16
2021-10-27 16:13:45.875000+00:00,-13,94,-8
2021-10-27 16:13:45.906250+00:00,-11,76,10
2021-10-27 16:13:45.937500+00:00,-16,76,14
2021-10-27 16:13:45.968750+00:00,-27,79,9
2021-10-27 16:13:46+00:00,-27,79,-6
2021-10-27 16:13:46.031250+00:00,-26,73,-10
2021-10-27 16:13:46.062500+00:00,-21,57,-5
2021-10-27 16:13:46.093750+00:00,-16,53,1
2021-10-27 16:13:46.125000+00:00,-7,53,11
2021-10-27 16:13:46.156250+00:00,-8,52,12
2021-10-27 16:13:46.187500+00:00,-18,57,9
2021-10-27 16:13:46.218750+00:00,-25,57,8
2021-10-27 16:13:46.250000+00:00,-35,56,7
2021-10-27 16:13:46.281250+00:00,-34,60,7
2021-10-27 16:13:46.312500+00:00,-34,65,8
2021-10-27 16:13:46.343750+00:00,-24,78,7
2021-10-27 16:13:46.375000+00:00,-15,84,4
2021-10-27 16:13:46.406250+00:00,-9,97,6
2021-10-27 16:13:46.437500+00:00,-7,105,8
2021-10-27 16:13:46.468750+00:00,-6,99,4
2021-10-27 16:13:46.500000+00:00,-28,90,-2
2021-10-27 16:13:46.531250+00:00,-31,92,0
2021-10-27 16:13:46.562500+00:00,-22,93,6
2021-10-27 16:13:46.593750+00:00,-19,85,6
2021-10-27 16:13:46.625000+00:00,-23,71,2
2021-10-27 16:13:46.656250+00:00,-21,66,2
2021-10-27 16:13:46.687500+00:00,-13,60,2
2021-10-27 16:13:46.718750+00:00,-4,53,1
2021-10-27 16:13:46.750000+00:00,0,49,1
2021-10-27 16:13:46.781250+00:00,4,42,3
2021-10-27 16:13:46.812500+00:00,5,41,5
2021-10-27 16:13:46.843750+00:00,3,46,6
2021-10-27 16:13:46.875000+00:00,-1,51,4
2021-10-27 16:13:46.906250+00:00,-4,62,-1
2021-10-27 16:13:46.937500+00:00,-6,70,-6
2021-10-27 16:13:46.968750+00:00,-8,74,-10
2021-10-27 16:13:47+00:00,-7,104,-17
2021-10-27 16:13:47.031250+00:00,-12,117,-18
2021-10-27 16:13:47.062500+00:00,-26,104,-14
2021-10-27 16:13:47.093750+00:00,-35,88,-10
2021-10-27 16:13:47.125000+00:00,-33,85,-8
2021-10-27 16:13:47.156250+00:00,-19,72,-1
2021-10-27 16:13:47.187500+00:00,-16,61,-1
2021-10-27 16:13:47.218750+00:00,-17,51,2
2021-10-27 16:13:47.250000+00:00,-18,49,2
2021-10-27 16:13:47.281250+00:00,-14,49,4
2021-10-27 16:13:47.312500+00:00,-18,51,7
2021-10-27 16:13:47.343750+00:00,-21,50,9
2021-10-27 16:13:47.375000+00:00,-24,50,13
2021-10-27 16:13:47.406250+00:00,-25,48,15
2021-10-27 16:13:47.437500+00:00,-28,52,17
2021-10-27 16:13:47.468750+00:00,-26,53,17
2021-10-27 16:13:47.500000+00:00,-24,59,16
2021-10-27 16:13:47.531250+00:00,-23,63,14
2021-10-27 16:13:47.562500+00:00,-18,68,7
2021-10-27 16:13:47.593750+00:00,-24,89,4
2021-10-27 16:13:47.625000+00:00,-32,102,2
2021-10-27 16:13:47.656250+00:00,-37,76,-5
2021-10-27 16:13:47.687500+00:00,-40,62,-6
2021-10-27 16:13:47.718750+00:00,-33,76,-4
2021-10-27 16:13:47.750000+00:00,-22,91,-2
2021-10-27 16:13:47.781250+00:00,-14,100,-1
2021-10-27 16:13:47.812500+00:00,-11,94,0
2021-10-27 16:13:47.843750+00:00,-9,89,1
2021-10-27 16:13:47.875000+00:00,-8,83,8
2021-10-27 16:13:47.906250+00:00,-8,81,9
2021-10-27 16:13:47.937500+00:00,-4,74,4
2021-10-27 16:13:47.968750+00:00,-4,61,1
2021-10-27 16:13:48+00:00,-4,58,2
2021-10-27 16:13:48.031250+00:00,-5,48,3
2021-10-27 16:13:48.062500+00:00,-3,48,5
2021-10-27 16:13:48.093750+00:00,2,45,8
2021-10-27 16:13:48.125000+00:00,2,43,9
2021-10-27 16:13:48.156250+00:00,9,50,9
2021-10-27 16:13:48.187500+00:00,8,73,8
2021-10-27 16:13:48.218750+00:00,0,88,8
2021-10-27 16:13:48.250000+00:00,-14,95,12
2021-10-27 16:13:48.281250+00:00,-15,99,13
2021-10-27 16:13:48.312500+00:00,-14,108,1
2021-10-27 16:13:48.343750+00:00,-13,104,-4
2021-10-27 16:13:48.375000+00:00,-15,76,-7
2021-10-27 16:13:48.406250+00:00,-18,67,-2
2021-10-27 16:13:48.437500+00:00,-21,66,0
2021-10-27 16:13:48.468750+00:00,-23,64,0
2021-10-27 16:13:48.500000+00:00,-26,64,1
2021-10-27 16:13:48.531250+00:00,-28,60,3
2021-10-27 16:13:48.562500+00:00,-27,58,6
2021-10-27 16:13:48.593750+00:00,-25,50,9
2021-10-27 16:13:48.625000+00:00,-25,52,12
2021-10-27 16:13:48.656250+00:00,-24,54,12
2021-10-27 16:13:48.687500+00:00,-22,64,5
2021-10-27 16:13:48.718750+00:00,-22,74,1
2021-10-27 16:13:48.750000+00:00,-24,90,-6
2021-10-27 16:13:48.781250+00:00,-32,101,-5
2021-10-27 16:13:48.812500+00:00,-44,82,-9
2021-10-27 16:13:48.843750+00:00,-25,84,-3
2021-10-27 16:13:48.875000+00:00,-21,92,-1
2021-10-27 16:13:48.906250+00:00,-17,103,-2
2021-10-27 16:13:48.937500+00:00,-15,101,-3
2021-10-27 16:13:48.968750+00:00,-12,94,-3
2021-10-27 16:13:49+00:00,-5,83,1
2021-10-27 16:13:49.031250+00:00,-4,78,3
2021-10-27 16:13:49.062500+00:00,-1,68,3
2021-10-27 16:13:49.093750+00:00,1,61,3
2021-10-27 16:13:49.125000+00:00,0,53,4
2021-10-27 16:13:49.156250+00:00,-1,47,4
2021-10-27 16:13:49.187500+00:00,2,42,5
2021-10-27 16:13:49.218750+00:00,4,42,5
2021-10-27 16:13:49.250000+00:00,3,45,7
2021-10-27 16:13:49.281250+00:00,5,55,7
2021-10-27 16:13:49.312500+00:00,5,65,9
2021-10-27 16:13:49.343750+00:00,-5,95,10
2021-10-27 16:13:49.375000+00:00,-12,99,11
2021-10-27 16:13:49.406250+00:00,-14,93,13
2021-10-27 16:13:49.437500+00:00,-13,93,11
2021-10-27 16:13:49.468750+00:00,-12,106,3
2021-10-27 16:13:49.500000+00:00,-17,89,0
2021-10-27 16:13:49.531250+00:00,-19,77,2
2021-10-27 16:13:49.562500+00:00,-23,63,3
2021-10-27 16:13:49.593750+00:00,-24,61,4
2021-10-27 16:13:49.625000+00:00,-28,61,5
2021-10-27 16:13:49.656250+00:00,-30,60,4
2021-10-27 16:13:49.687500+00:00,-29,56,5
2021-10-27 16:13:49.718750+00:00,-29,50,9
2021-10-27 16:13:49.750000+00:00,-29,49,11
2021-10-27 16:13:49.781250+00:00,-32,49,11
2021-10-27 16:13:49.812500+00:00,-32,53,10
2021-10-27 16:13:49.843750+00:00,-29,61,7
2021-10-27 16:13:49.875000+00:00,-24,65,5
2021-10-27 16:13:49.906250+00:00,-17,77,-1
2021-10-27 16:13:49.937500+00:00,-21,110,-2
2021-10-27 16:13:49.968750+00:00,-25,126,-3
2021-10-27 16:13:50+00:00,-24,93,-2
2021-10-27 16:13:50.031250+00:00,-23,94,2
2021-10-27 16:13:50.062500+00:00,-13,113,-3
2021-10-27 16:13:50.093750+00:00,-7,114,-5
2021-10-27 16:13:50.125000+00:00,-12,105,-2
2021-10-27 16:13:50.156250+00:00,-9,88,-1
2021-10-27 16:13:50.187500+00:00,-7,80,-1
2021-10-27 16:13:50.218750+00:00,-5,71,2
2021-10-27 16:13:50.250000+00:00,-2,66,2
2021-10-27 16:13:50.281250+00:00,0,52,2
2021-10-27 16:13:50.312500+00:00,0,45,2
2021-10-27 16:13:50.343750+00:00,-2,33,4
2021-10-27 16:13:50.375000+00:00,-4,24,6
2021-10-27 16:13:50.406250+00:00,-8,23,7
2021-10-27 16:13:50.437500+00:00,-12,24,6
2021-10-27 16:13:50.468750+00:00,-11,22,6
2021-10-27 16:13:50.500000+00:00,-11,20,7
2021-10-27 16:13:50.531250+00:00,-14,23,7
2021-10-27 16:13:50.562500+00:00,-21,33,9
2021-10-27 16:13:50.593750+00:00,-25,43,8
2021-10-27 16:13:50.625000+00:00,-14,50,12
2021-10-27 16:13:50.656250+00:00,3,80,11
2021-10-27 16:13:50.687500+00:00,13,114,4
2021-10-27 16:13:50.718750+00:00,-8,127,10
2021-10-27 16:13:50.750000+00:00,-28,127,14
2021-10-27 16:13:50.781250+00:00,-37,127,17
2021-10-27 16:13:50.812500+00:00,-25,105,7
2021-10-27 16:13:50.843750+00:00,-23,89,9
2021-10-27 16:13:50.875000+00:00,-26,64,14
2021-10-27 16:13:50.906250+00:00,-29,51,14
2021-10-27 16:13:50.937500+00:00,-28,38,18
2021-10-27 16:13:50.968750+00:00,-28,36,17
2021-10-27 16:13:51+00:00,-30,33,13
2021-10-27 16:13:51.031250+00:00,-27,30,10
2021-10-27 16:13:51.062500+00:00,-26,29,9
2021-10-27 16:13:51.093750+00:00,-25,26,5
2021-10-27 16:13:51.125000+00:00,-25,26,4
2021-10-27 16:13:51.156250+00:00,-25,35,3
2021-10-27 16:13:51.187500+00:00,-25,45,2
2021-10-27 16:13:51.218750+00:00,-26,55,3
2021-10-27 16:13:51.250000+00:00,-23,79,0
2021-10-27 16:13:51.281250+00:00,-21,95,-4
2021-10-27 16:13:51.312500+00:00,-19,127,-10
2021-10-27 16:13:51.343750+00:00,-19,127,-10
2021-10-27 16:13:51.375000+00:00,-5,127,-9
2021-10-27 16:13:51.406250+00:00,-6,115,-7
2021-10-27 16:13:51.437500+00:00,-12,112,-1
2021-10-27 16:13:51.468750+00:00,-24,100,3
2021-10-27 16:13:51.500000+00:00,-25,84,5
2021-10-27 16:13:51.531250+00:00,-27,58,5
2021-10-27 16:13:51.562500+00:00,-19,51,6
2021-10-27 16:13:51.593750+00:00,-1,42,6
2021-10-27 16:13:51.625000+00:00,7,37,7
2021-10-27 16:13:51.656250+00:00,14,26,12
2021-10-27 16:13:51.687500+00:00,11,18,16
2021-10-27 16:13:51.718750+00:00,6,17,16
2021-10-27 16:13:51.750000+00:00,-3,24,13
2021-10-27 16:13:51.781250+00:00,-7,28,11
2021-10-27 16:13:51.812500+00:00,-13,37,5
2021-10-27 16:13:51.843750+00:00,-26,55,0
2021-10-27 16:13:51.875000+00:00,-23,65,-3
2021-10-27 16:13:51.906250+00:00,-17,101,-5
2021-10-27 16:13:51.937500+00:00,-17,123,-1
2021-10-27 16:13:51.968750+00:00,-26,127,14
2021-10-27 16:13:52+00:00,-38,127,21
2021-10-27 16:13:52.031250+00:00,-52,121,12
2021-10-27 16:13:52.062500+00:00,-48,70,5
2021-10-27 16:13:52.093750+00:00,-41,59,11
2021-10-27 16:13:52.125000+00:00,-13,51,26
2021-10-27 16:13:52.156250+00:00,-4,48,31
2021-10-27 16:13:52.187500+00:00,-8,43,26
2021-10-27 16:13:52.218750+00:00,-14,40,21
2021-10-27 16:13:52.250000+00:00,-28,40,13
2021-10-27 16:13:52.281250+00:00,-41,54,6
2021-10-27 16:13:52.312500+00:00,-48,65,7
2021-10-27 16:13:52.343750+00:00,-40,77,3
2021-10-27 16:13:52.375000+00:00,-34,81,-4
2021-10-27 16:13:52.406250+00:00,-27,116,-6
2021-10-27 16:13:52.437500+00:00,-31,125,-4
2021-10-27 16:13:52.468750+00:00,-22,99,-3
2021-10-27 16:13:52.500000+00:00,-19,98,-9
2021-10-27 16:13:52.531250+00:00,-20,102,-10
2021-10-27 16:13:52.562500+00:00,-17,102,-9
2021-10-27 16:13:52.593750+00:00,-15,95,-7
2021-10-27 16:13:52.625000+00:00,-13,79,-3
2021-10-27 16:13:52.656250+00:00,-10,72,-2
2021-10-27 16:13:52.687500+00:00,-2,61,0
2021-10-27 16:13:52.718750+00:00,1,55,2
2021-10-27 16:13:52.750000+00:00,1,53,3
2021-10-27 16:13:52.781250+00:00,-2,52,3
2021-10-27 16:13:52.812500+00:00,-1,49,2
2021-10-27 16:13:52.843750+00:00,1,47,2
2021-10-27 16:13:52.875000+00:00,3,46,2
2021-10-27 16:13:52.906250+00:00,2,43,2
2021-10-27 16:13:52.937500+00:00,-4,62,1
2021-10-27 16:13:52.968750+00:00,-12,74,1
2021-10-27 16:13:53+00:00,-21,82,4
2021-10-27 16:13:53.031250+00:00,-20,84,8
2021-10-27 16:13:53.062500+00:00,-19,94,9
2021-10-27 16:13:53.093750+00:00,-19,103,6
2021-10-27 16:13:53.125000+00:00,-25,99,3
2021-10-27 16:13:53.156250+00:00,-27,76,7
2021-10-27 16:13:53.187500+00:00,-26,69,10
2021-10-27 16:13:53.218750+00:00,-25,65,18
2021-10-27 16:13:53.250000+00:00,-25,65,19
2021-10-27 16:13:53.281250+00:00,-30,68,17
2021-10-27 16:13:53.312500+00:00,-33,65,16
2021-10-27 16:13:53.343750+00:00,-35,57,17
2021-10-27 16:13:53.375000+00:00,-38,55,15
2021-10-27 16:13:53.406250+00:00,-36,56,15
2021-10-27 16:13:53.437500+00:00,-22,66,13
2021-10-27 16:13:53.468750+00:00,-17,80,10
2021-10-27 16:13:53.500000+00:00,-20,114,4
2021-10-27 16:13:53.531250+00:00,-21,120,0
2021-10-27 16:13:53.562500+00:00,-20,93,-6
2021-10-27 16:13:53.593750+00:00,-16,86,-4
2021-10-27 16:13:53.625000+00:00,-14,92,-4
2021-10-27 16:13:53.656250+00:00,-14,91,-3
2021-10-27 16:13:53.687500+00:00,-14,89,-3
2021-10-27 16:13:53.718750+00:00,-11,79,-5
2021-10-27 16:13:53.750000+00:00,-8,74,-4
2021-10-27 16:13:53.781250+00:00,-3,65,-1
2021-10-27 16:13:53.812500+00:00,0,49,0
2021-10-27 16:13:53.843750+00:00,-1,40,1
2021-10-27 16:13:53.875000+00:00,-4,28,3
2021-10-27 16:13:53.906250+00:00,-2,25,3
2021-10-27 16:13:53.937500+00:00,2,20,3
2021-10-27 16:13:53.968750+00:00,1,20,2
2021-10-27 16:13:54+00:00,-5,25,-1
2021-10-27 16:13:54.031250+00:00,-15,34,-1
2021-10-27 16:13:54.062500+00:00,-20,39,-2
2021-10-27 16:13:54.093750+00:00,-22,53,0
2021-10-27 16:13:54.125000+00:00,-22,65,-1
2021-10-27 16:13:54.156250+00:00,-52,121,-6
2021-10-27 16:13:54.187500+00:00,-57,127,-3
2021-10-27 16:13:54.218750+00:00,-46,113,10
2021-10-27 16:13:54.250000+00:00,-31,114,24
2021-10-27 16:13:54.281250+00:00,-29,104,26
2021-10-27 16:13:54.312500+00:00,-35,74,19
2021-10-27 16:13:54.343750+00:00,-37,61,23
2021-10-27 16:13:54.375000+00:00,-34,43,19
2021-10-27 16:13:54.406250+00:00,-34,34,16
2021-10-27 16:13:54.437500+00:00,-41,25,15
2021-10-27 16:13:54.468750+00:00,-38,21,12
2021-10-27 16:13:54.500000+00:00,-33,21,12
2021-10-27 16:13:54.531250+00:00,-24,28,12
2021-10-27 16:13:54.562500+00:00,-22,36,12
2021-10-27 16:13:54.593750+00:00,-17,65,11
2021-10-27 16:13:54.625000+00:00,-15,84,10
2021-10-27 16:13:54.656250+00:00,-20,120,-1
2021-10-27 16:13:54.687500+00:00,-15,127,-19
2021-10-27 16:13:54.718750+00:00,-17,127,-25
2021-10-27 16:13:54.750000+00:00,-19,95,-23
2021-10-27 16:13:54.781250+00:00,-16,96,-13
2021-10-27 16:13:54.812500+00:00,-19,92,-5
2021-10-27 16:13:54.843750+00:00,-25,81,-6
2021-10-27 16:13:54.875000+00:00,-28,50,-4
2021-10-27 16:13:54.906250+00:00,-22,37,0
2021-10-27 16:13:54.937500+00:00,-14,30,0
2021-10-27 16:13:54.968750+00:00,1,23,5
2021-10-27 16:13:55+00:00,6,19,7
2021-10-27 16:13:55.031250+00:00,9,14,9
2021-10-27 16:13:55.062500+00:00,8,14,6
2021-10-27 16:13:55.093750+00:00,1,18,6
2021-10-27 16:13:55.125000+00:00,-11,31,2
2021-10-27 16:13:55.156250+00:00,-13,36,-1
2021-10-27 16:13:55.187500+00:00,-14,55,-9
2021-10-27 16:13:55.218750+00:00,-9,68,-12
2021-10-27 16:13:55.250000+00:00,-7,116,-16
2021-10-27 16:13:55.281250+00:00,-24,127,-14
2021-10-27 16:13:55.312500+00:00,-56,127,6
2021-10-27 16:13:55.343750+00:00,-48,116,16
2021-10-27 16:13:55.375000+00:00,-33,109,9
2021-10-27 16:13:55.406250+00:00,-25,87,3
2021-10-27 16:13:55.437500+00:00,-23,70,11
2021-10-27 16:13:55.468750+00:00,-13,49,27
2021-10-27 16:13:55.500000+00:00,-6,46,31
2021-10-27 16:13:55.531250+00:00,-11,38,27
2021-10-27 16:13:55.562500+00:00,-24,34,19
2021-10-27 16:13:55.593750+00:00,-29,33,15
2021-10-27 16:13:55.625000+00:00,-31,34,10
2021-10-27 16:13:55.656250+00:00,-29,37,9
2021-10-27 16:13:55.687500+00:00,-27,52,8
2021-10-27 16:13:55.718750+00:00,-25,61,8
2021-10-27 16:13:55.750000+00:00,-23,80,6
2021-10-27 16:13:55.781250+00:00,-20,83,0
2021-10-27 16:13:55.812500+00:00,-18,90,-2
2021-10-27 16:13:55.843750+00:00,-6,126,-2
2021-10-27 16:13:55.875000+00:00,-6,127,-1
2021-10-27 16:13:55.906250+00:00,-16,127,-12
2021-10-27 16:13:55.937500+00:00,-19,112,-9
2021-10-27 16:13:55.968750+00:00,-17,101,-3
2021-10-27 16:13:56+00:00,-12,82,7
2021-10-27 16:13:56.031250+00:00,-10,72,9
2021-10-27 16:13:56.062500+00:00,-9,52,10
2021-10-27 16:13:56.093750+00:00,-7,45,8
2021-10-27 16:13:56.125000+00:00,-5,36,6
2021-10-27 16:13:56.156250+00:00,-4,30,4
2021-10-27 16:13:56.187500+00:00,-4,29,4
2021-10-27 16:13:56.218750+00:00,-3,29,3
2021-10-27 16:13:56.250000+00:00,-2,31,3
2021-10-27 16:13:56.281250+00:00,-5,43,2
2021-10-27 16:13:56.312500+00:00,-9,51,0
2021-10-27 16:13:56.343750+00:00,-16,63,-3
2021-10-27 16:13:56.375000+00:00,-11,73,-4
2021-10-27 16:13:56.406250+00:00,-9,83,-3
2021-10-27 16:13:56.437500+00:00,-17,110,-2
2021-10-27 16:13:56.468750+00:00,-30,122,0
2021-10-27 16:13:56.500000+00:00,-48,108,4
2021-10-27 16:13:56.531250+00:00,-47,95,6
2021-10-27 16:13:56.562500+00:00,-28,78,9
2021-10-27 16:13:56.593750+00:00,-10,74,15
2021-10-27 16:13:56.625000+00:00,-7,72,19
2021-10-27 16:13:56.656250+00:00,-8,61,20
2021-10-27 16:13:56.687500+00:00,-11,56,17
2021-10-27 16:13:56.718750+00:00,-22,48,8
2021-10-27 16:13:56.750000+00:00,-29,48,5
2021-10-27 16:13:56.781250+00:00,-38,49,2
2021-10-27 16:13:56.812500+00:00,-35,53,4
2021-10-27 16:13:56.843750+00:00,-32,54,6
2021-10-27 16:13:56.875000+00:00,-26,51,10
2021-10-27 16:13:56.906250+00:00,-23,48,10
2021-10-27 16:13:56.937500+00:00,-16,42,7
2021-10-27 16:13:56.968750+00:00,-15,43,6
2021-10-27 16:13:57+00:00,-15,50,5
2021-10-27 16:13:57.031250+00:00,-10,52,1
2021-10-27 16:13:57.062500+00:00,-8,55,-1
2021-10-27 16:13:57.093750+00:00,-10,67,-1
2021-10-27 16:13:57.125000+00:00,-14,70,-1
2021-10-27 16:13:57.156250+00:00,-18,76,-1
2021-10-27 16:13:57.187500+00:00,-19,86,-1
2021-10-27 16:13:57.218750+00:00,-13,108,-3
2021-10-27 16:13:57.250000+00:00,-13,127,-3
2021-10-27 16:13:57.281250+00:00,-16,125,-4
2021-10-27 16:13:57.312500+00:00,-15,91,-3
2021-10-27 16:13:57.343750+00:00,-12,79,0
2021-10-27 16:13:57.375000+00:00,-9,66,6
2021-10-27 16:13:57.406250+00:00,-9,58,10
2021-10-27 16:13:57.437500+00:00,-16,41,15
2021-10-27 16:13:57.468750+00:00,-18,30,15
2021-10-27 16:13:57.500000+00:00,-15,27,13
2021-10-27 16:13:57.531250+00:00,-7,23,8
2021-10-27 16:13:57.562500+00:00,-6,23,6
2021-10-27 16:13:57.593750+00:00,-6,24,4
2021-10-27 16:13:57.625000+00:00,-3,32,1
2021-10-27 16:13:57.656250+00:00,-3,55,-5
2021-10-27 16:13:57.687500+00:00,-12,76,-14
2021-10-27 16:13:57.718750+00:00,-13,86,-17
2021-10-27 16:13:57.750000+00:00,-14,100,-18
2021-10-27 16:13:57.781250+00:00,-15,112,-16
2021-10-27 16:13:57.812500+00:00,-29,117,3
2021-10-27 16:13:57.843750+00:00,-37,107,12
2021-10-27 16:13:57.875000+00:00,-46,90,25
2021-10-27 16:13:57.906250+00:00,-31,85,16
2021-10-27 16:13:57.937500+00:00,-20,76,16
2021-10-27 16:13:57.968750+00:00,2,49,24
2021-10-27 16:13:58+00:00,4,42,25
2021-10-27 16:13:58.031250+00:00,-7,34,21
2021-10-27 16:13:58.062500+00:00,-14,31,17
2021-10-27 16:13:58.093750+00:00,-26,27,10
2021-10-27 16:13:58.125000+00:00,-33,29,5
2021-10-27 16:13:58.156250+00:00,-32,29,5
2021-10-27 16:13:58.187500+00:00,-24,32,5
2021-10-27 16:13:58.218750+00:00,-21,38,4
2021-10-27 16:13:58.250000+00:00,-16,52,4
2021-10-27 16:13:58.281250+00:00,-15,63,3
2021-10-27 16:13:58.312500+00:00,-11,90,-2
2021-10-27 16:13:58.343750+00:00,-13,121,-7
2021-10-27 16:13:58.375000+00:00,-12,127,-10
2021-10-27 16:13:58.406250+00:00,-12,127,-9
2021-10-27 16:13:58.437500+00:00,-13,118,-9
2021-10-27 16:13:58.468750+00:00,-12,104,-5
2021-10-27 16:13:58.500000+00:00,-14,99,-2
2021-10-27 16:13:58.531250+00:00,-19,72,7
2021-10-27 16:13:58.562500+00:00,-21,44,14
2021-10-27 16:13:58.593750+00:00,-17,35,13
2021-10-27 16:13:58.625000+00:00,-6,25,13
2021-10-27 16:13:58.656250+00:00,-1,22,13
2021-10-27 16:13:58.687500+00:00,4,19,14
2021-10-27 16:13:58.718750+00:00,2,20,15
2021-10-27 16:13:58.750000+00:00,-2,21,13
2021-10-27 16:13:58.781250+00:00,-3,31,11
2021-10-27 16:13:58.812500+00:00,-4,38,10
2021-10-27 16:13:58.843750+00:00,-3,53,3
2021-10-27 16:13:58.875000+00:00,-2,62,-1
2021-10-27 16:13:58.906250+00:00,-5,88,-8
2021-10-27 16:13:58.937500+00:00,-8,97,-11
2021-10-27 16:13:58.968750+00:00,-14,127,-14
2021-10-27 16:13:59+00:00,-45,127,-4
2021-10-27 16:13:59.031250+00:00,-53,117,5
2021-10-27 16:13:59.062500+00:00,-43,93,13
2021-10-27 16:13:59.093750+00:00,-34,93,9
2021-10-27 16:13:59.125000+00:00,-22,73,11
2021-10-27 16:13:59.156250+00:00,-12,56,18
2021-10-27 16:13:59.187500+00:00,-1,39,24
2021-10-27 16:13:59.218750+00:00,-7,28,19
2021-10-27 16:13:59.250000+00:00,-15,24,15
2021-10-27 16:13:59.281250+00:00,-32,21,7
2021-10-27 16:13:59.312500+00:00,-35,23,4
2021-10-27 16:13:59.343750+00:00,-34,30,2
2021-10-27 16:13:59.375000+00:00,-30,35,2
2021-10-27 16:13:59.406250+00:00,-24,49,4
2021-10-27 16:13:59.437500+00:00,-22,70,5
2021-10-27 16:13:59.468750+00:00,-17,77,3
2021-10-27 16:13:59.500000+00:00,-8,103,-1
2021-10-27 16:13:59.531250+00:00,-3,120,-4
2021-10-27 16:13:59.562500+00:00,-5,127,-6
2021-10-27 16:13:59.593750+00:00,-11,127,-7
2021-10-27 16:13:59.625000+00:00,-16,110,-9
2021-10-27 16:13:59.656250+00:00,-17,100,-4
2021-10-27 16:13:59.687500+00:00,-17,90,1
2021-10-27 16:13:59.718750+00:00,-20,55,8
2021-10-27 16:13:59.750000+00:00,-19,42,8
2021-10-27 16:13:59.781250+00:00,-14,29,13
2021-10-27 16:13:59.812500+00:00,-1,23,15
2021-10-27 16:13:59.843750+00:00,6,20,16
2021-10-27 16:13:59.875000+00:00,10,17,15
2021-10-27 16:13:59.906250+00:00,8,16,14
2021-10-27 16:13:59.937500+00:00,4,16,12
2021-10-27 16:13:59.968750+00:00,2,19,11
2021-10-27 16:14:00+00:00,-1,29,8
2021-10-27 16:14:00.031250+00:00,-1,46,2
2021-10-27 16:14:00.062500+00:00,0,65,-2
2021-10-27 16:14:00.093750+00:00,1,105,-20
2021-10-27 16:14:00.125000+00:00,-2,127,-31
2021-10-27 16:14:00.156250+00:00,-28,127,-23
2021-10-27 16:14:00.187500+00:00,-49,127,-3
2021-10-27 16:14:00.218750+00:00,-64,127,23
2021-10-27 16:14:00.250000+00:00,-41,112,10
2021-10-27 16:14:00.281250+00:00,-35,88,1
2021-10-27 16:14:00.312500+00:00,-8,60,25
2021-10-27 16:14:00.343750+00:00,2,44,34
2021-10-27 16:14:00.375000+00:00,-3,42,31
2021-10-27 16:14:00.406250+00:00,-11,39,24
2021-10-27 16:14:00.437500+00:00,-30,28,5
2021-10-27 16:14:00.468750+00:00,-42,26,-6
2021-10-27 16:14:00.500000+00:00,-44,31,-9
2021-10-27 16:14:00.531250+00:00,-41,45,-6
2021-10-27 16:14:00.562500+00:00,-40,55,1
2021-10-27 16:14:00.593750+00:00,-35,65,10
2021-10-27 16:14:00.625000+00:00,-30,64,10
2021-10-27 16:14:00.656250+00:00,-14,71,2
2021-10-27 16:14:00.687500+00:00,-10,127,-10
2021-10-27 16:14:00.718750+00:00,-15,127,-10
2021-10-27 16:14:00.750000+00:00,-8,127,-23
2021-10-27 16:14:00.781250+00:00,-8,122,-22
2021-10-27 16:14:00.812500+00:00,-18,103,-5
2021-10-27 16:14:00.843750+00:00,-21,94,3
2021-10-27 16:14:00.875000+00:00,-25,78,10
2021-10-27 16:14:00.906250+00:00,-25,66,11
2021-10-27 16:14:00.937500+00:00,-21,61,8
2021-10-27 16:14:00.968750+00:00,-7,57,5
2021-10-27 16:14:01+00:00,-1,57,4
2021-10-27 16:14:01.031250+00:00,12,56,9
2021-10-27 16:14:01.062500+00:00,15,58,13
2021-10-27 16:14:01.093750+00:00,14,62,16
2021-10-27 16:14:01.125000+00:00,9,62,9
2021-10-27 16:14:01.156250+00:00,9,65,5
2021-10-27 16:14:01.187500+00:00,2,70,-4
2021-10-27 16:14:01.218750+00:00,-15,74,-7
2021-10-27 16:14:01.250000+00:00,-67,87,-18
2021-10-27 16:14:01.281250+00:00,-78,90,-26
2021-10-27 16:14:01.312500+00:00,-128,66,-17
2021-10-27 16:14:01.343750+00:00,-104,25,4
2021-10-27 16:14:01.375000+00:00,-82,15,2
2021-10-27 16:14:01.406250+00:00,-61,10,3
2021-10-27 16:14:01.437500+00:00,-50,12,10
2021-10-27 16:14:01.468750+00:00,-37,10,20
2021-10-27 16:14:01.500000+00:00,-33,13,20
2021-10-27 16:14:01.531250+00:00,-23,20,18
2021-10-27 16:14:01.562500+00:00,-32,31,7
2021-10-27 16:14:01.593750+00:00,-29,34,9
2021-10-27 16:14:01.625000+00:00,-35,31,9
2021-10-27 16:14:01.656250+00:00,-41,37,9
2021-10-27 16:14:01.687500+00:00,-62,44,10
2021-10-27 16:14:01.718750+00:00,-74,43,5
2021-10-27 16:14:01.750000+00:00,-83,32,-6
2021-10-27 16:14:01.781250+00:00,-112,25,-27
2021-10-27 16:14:01.812500+00:00,-102,25,-25
2021-10-27 16:14:01.843750+00:00,-82,19,-19
2021-10-27 16:14:01.875000+00:00,-77,21,-13
2021-10-27 16:14:01.906250+00:00,-68,28,2
2021-10-27 16:14:01.937500+00:00,-62,29,6
2021-10-27 16:14:01.968750+00:00,-46,27,15
2021-10-27 16:14:02+00:00,-30,19,19
2021-10-27 16:14:02.031250+00:00,-24,16,18
2021-10-27 16:14:02.062500+00:00,-17,12,14
2021-10-27 16:14:02.093750+00:00,-16,12,12
2021-10-27 16:14:02.125000+00:00,-16,15,8
2021-10-27 16:14:02.156250+00:00,-21,22,7
2021-10-27 16:14:02.187500+00:00,-16,39,6
2021-10-27 16:14:02.218750+00:00,-5,58,0
2021-10-27 16:14:02.250000+00:00,2,71,-5
2021-10-27 16:14:02.281250+00:00,8,115,-18
2021-10-27 16:14:02.312500+00:00,0,127,-21
2021-10-27 16:14:02.343750+00:00,-25,127,-20
2021-10-27 16:14:02.375000+00:00,-37,127,-10
2021-10-27 16:14:02.406250+00:00,-62,123,6
2021-10-27 16:14:02.437500+00:00,-39,91,-14
2021-10-27 16:14:02.468750+00:00,-34,77,-21
2021-10-27 16:14:02.500000+00:00,-22,54,-9
2021-10-27 16:14:02.531250+00:00,-16,50,0
2021-10-27 16:14:02.562500+00:00,-5,53,16
2021-10-27 16:14:02.593750+00:00,-5,55,18
2021-10-27 16:14:02.625000+00:00,-16,55,11
2021-10-27 16:14:02.656250+00:00,-32,50,7
2021-10-27 16:14:02.687500+00:00,-41,51,5
2021-10-27 16:14:02.718750+00:00,-53,62,-1
2021-10-27 16:14:02.750000+00:00,-52,66,-4
2021-10-27 16:14:02.781250+00:00,-45,75,-8
2021-10-27 16:14:02.812500+00:00,-33,84,-8
2021-10-27 16:14:02.843750+00:00,-14,107,4
2021-10-27 16:14:02.875000+00:00,-18,108,10
2021-10-27 16:14:02.906250+00:00,-21,98,5
2021-10-27 16:14:02.937500+00:00,-27,108,-5
2021-10-27 16:14:02.968750+00:00,-24,122,-5
2021-10-27 16:14:03+00:00,-10,118,-4
2021-10-27 16:14:03.031250+00:00,-8,104,-4
2021-10-27 16:14:03.062500+00:00,-7,84,0
2021-10-27 16:14:03.093750+00:00,-3,74,0
2021-10-27 16:14:03.125000+00:00,-2,70,-2
2021-10-27 16:14:03.156250+00:00,-1,62,-2
2021-10-27 16:14:03.187500+00:00,-2,59,-3
2021-10-27 16:14:03.218750+00:00,-1,52,-2
2021-10-27 16:14:03.250000+00:00,1,48,-1
2021-10-27 16:14:03.281250+00:00,3,45,1
2021-10-27 16:14:03.312500+00:00,9,39,1
2021-10-27 16:14:03.343750+00:00,12,42,-1
2021-10-27 16:14:03.375000+00:00,14,56,1
2021-10-27 16:14:03.406250+00:00,7,69,3
2021-10-27 16:14:03.437500+00:00,-5,88,4
2021-10-27 16:14:03.468750+00:00,-9,100,5
2021-10-27 16:14:03.500000+00:00,-20,127,0
2021-10-27 16:14:03.531250+00:00,-28,125,-8
2021-10-27 16:14:03.562500+00:00,-28,104,-6
2021-10-27 16:14:03.593750+00:00,-11,75,3
2021-10-27 16:14:03.625000+00:00,-11,73,10
2021-10-27 16:14:03.656250+00:00,-25,73,19
2021-10-27 16:14:03.687500+00:00,-33,76,11
2021-10-27 16:14:03.718750+00:00,-31,73,8
2021-10-27 16:14:03.750000+00:00,-31,64,5
2021-10-27 16:14:03.781250+00:00,-35,66,5
2021-10-27 16:14:03.812500+00:00,-41,66,6
2021-10-27 16:14:03.843750+00:00,-43,67,5
2021-10-27 16:14:03.875000+00:00,-39,85,2
2021-10-27 16:14:03.906250+00:00,-35,98,4
2021-10-27 16:14:03.937500+00:00,-21,111,6
2021-10-27 16:14:03.968750+00:00,-15,92,0
2021-10-27 16:14:04+00:00,-16,92,-3
2021-10-27 16:14:04.031250+00:00,-16,108,-6
2021-10-27 16:14:04.062500+00:00,-12,114,-5
2021-10-27 16:14:04.093750+00:00,-10,97,-3
2021-10-27 16:14:04.125000+00:00,-12,86,-1
2021-10-27 16:14:04.156250+00:00,-10,74,0
2021-10-27 16:14:04.187500+00:00,-7,68,-1
2021-10-27 16:14:04.218750+00:00,-5,66,-1
2021-10-27 16:14:04.250000+00:00,-5,60,0
2021-10-27 16:14:04.281250+00:00,-7,60,1
2021-10-27 16:14:04.312500+00:00,-5,59,2
2021-10-27 16:14:04.343750+00:00,3,61,5
2021-10-27 16:14:04.375000+00:00,6,58,4
2021-10-27 16:14:04.406250+00:00,8,48,5
2021-10-27 16:14:04.437500+00:00,9,49,5
2021-10-27 16:14:04.468750+00:00,7,62,5
2021-10-27 16:14:04.500000+00:00,1,68,2
2021-10-27 16:14:04.531250+00:00,-21,77,1
2021-10-27 16:14:04.562500+00:00,-18,89,6
2021-10-27 16:14:04.593750+00:00,-15,99,0
2021-10-27 16:14:04.625000+00:00,-19,111,-8
2021-10-27 16:14:04.656250+00:00,-29,103,-7
2021-10-27 16:14:04.687500+00:00,-29,77,0
2021-10-27 16:14:04.718750+00:00,-30,70,4
2021-10-27 16:14:04.750000+00:00,-19,62,4
2021-10-27 16:14:04.781250+00:00,-22,69,5
2021-10-27 16:14:04.812500+00:00,-26,72,6
2021-10-27 16:14:04.843750+00:00,-28,70,14
2021-10-27 16:14:04.875000+00:00,-29,67,18
2021-10-27 16:14:04.906250+00:00,-33,72,22
2021-10-27 16:14:04.937500+00:00,-27,76,24
2021-10-27 16:14:04.968750+00:00,-16,81,19
2021-10-27 16:14:05+00:00,-15,105,17
2021-10-27 16:14:05.031250+00:00,-17,121,17
2021-10-27 16:14:05.062500+00:00,-28,97,3
2021-10-27 16:14:05.093750+00:00,-32,91,0
2021-10-27 16:14:05.125000+00:00,-27,109,-2
2021-10-27 16:14:05.156250+00:00,-20,120,-3
2021-10-27 16:14:05.187500+00:00,-10,108,-3
2021-10-27 16:14:05.218750+00:00,-12,83,-4
2021-10-27 16:14:05.250000+00:00,-11,73,-5
2021-10-27 16:14:05.281250+00:00,-11,58,-7
2021-10-27 16:14:05.312500+00:00,-9,53,-9
2021-10-27 16:14:05.343750+00:00,-7,55,-10
2021-10-27 16:14:05.375000+00:00,-9,56,-10
2021-10-27 16:14:05.406250+00:00,-8,64,-6
2021-10-27 16:14:05.437500+00:00,-1,73,-5
2021-10-27 16:14:05.468750+00:00,3,72,-6
2021-10-27 16:14:05.500000+00:00,7,60,-2
2021-10-27 16:14:05.531250+00:00,11,59,-2
2021-10-27 16:14:05.562500+00:00,10,59,-6
2021-10-27 16:14:05.593750+00:00,5,59,-9
2021-10-27 16:14:05.625000+00:00,-7,60,-6
2021-10-27 16:14:05.656250+00:00,-18,78,1
2021-10-27 16:14:05.687500+00:00,-22,86,-1
2021-10-27 16:14:05.718750+00:00,-32,94,-2
2021-10-27 16:14:05.750000+00:00,-35,91,-4
2021-10-27 16:14:05.781250+00:00,-33,76,-1
2021-10-27 16:14:05.812500+00:00,-30,74,6
2021-10-27 16:14:05.843750+00:00,-17,78,22
2021-10-27 16:14:05.875000+00:00,-19,84,33
2021-10-27 16:14:05.906250+00:00,-23,84,35
2021-10-27 16:14:05.937500+00:00,-31,81,37
2021-10-27 16:14:05.968750+00:00,-34,80,36
2021-10-27 16:14:06+00:00,-36,73,24
2021-10-27 16:14:06.031250+00:00,-33,71,18
2021-10-27 16:14:06.062500+00:00,-27,85,8
2021-10-27 16:14:06.093750+00:00,-36,112,12
2021-10-27 16:14:06.125000+00:00,-36,112,10
2021-10-27 16:14:06.156250+00:00,-26,86,4
2021-10-27 16:14:06.187500+00:00,-23,94,5
2021-10-27 16:14:06.218750+00:00,-12,121,4
2021-10-27 16:14:06.250000+00:00,-7,119,0
2021-10-27 16:14:06.281250+00:00,-8,98,-5
2021-10-27 16:14:06.312500+00:00,-9,83,-9
2021-10-27 16:14:06.343750+00:00,-8,80,-10
2021-10-27 16:14:06.375000+00:00,-8,72,-8
2021-10-27 16:14:06.406250+00:00,-9,72,-7
2021-10-27 16:14:06.437500+00:00,-7,67,-4
2021-10-27 16:14:06.468750+00:00,-6,67,-4
2021-10-27 16:14:06.500000+00:00,3,66,-2
2021-10-27 16:14:06.531250+00:00,13,60,-2
2021-10-27 16:14:06.562500+00:00,14,51,-2
2021-10-27 16:14:06.593750+00:00,13,41,0
2021-10-27 16:14:06.625000+00:00,12,44,0
2021-10-27 16:14:06.656250+00:00,3,56,3
2021-10-27 16:14:06.687500+00:00,-2,62,3
2021-10-27 16:14:06.718750+00:00,-7,82,9
2021-10-27 16:14:06.750000+00:00,-23,106,7
2021-10-27 16:14:06.781250+00:00,-26,113,3
2021-10-27 16:14:06.812500+00:00,-25,110,-2
2021-10-27 16:14:06.843750+00:00,-26,102,5
2021-10-27 16:14:06.875000+00:00,-31,91,19
2021-10-27 16:14:06.906250+00:00,-30,92,21
2021-10-27 16:14:06.937500+00:00,-39,90,26
2021-10-27 16:14:06.968750+00:00,-42,81,28
2021-10-27 16:14:07+00:00,-32,75,31
2021-10-27 16:14:07.031250+00:00,-25,71,31
2021-10-27 16:14:07.062500+00:00,-28,71,25
2021-10-27 16:14:07.093750+00:00,-32,70,14
2021-10-27 16:14:07.125000+00:00,-31,68,9
2021-10-27 16:14:07.156250+00:00,-28,84,3
2021-10-27 16:14:07.187500+00:00,-36,108,3
2021-10-27 16:14:07.218750+00:00,-34,101,2
2021-10-27 16:14:07.250000+00:00,-28,92,-1
2021-10-27 16:14:07.281250+00:00,-26,106,-3
2021-10-27 16:14:07.312500+00:00,-15,120,-10
2021-10-27 16:14:07.343750+00:00,-12,113,-10
2021-10-27 16:14:07.375000+00:00,-15,97,-8
2021-10-27 16:14:07.406250+00:00,-12,90,-5
2021-10-27 16:14:07.437500+00:00,-9,89,-5
2021-10-27 16:14:07.468750+00:00,-5,83,-4
2021-10-27 16:14:07.500000+00:00,-4,80,-3
2021-10-27 16:14:07.531250+00:00,-1,74,0
2021-10-27 16:14:07.562500+00:00,3,63,0
2021-10-27 16:14:07.593750+00:00,6,60,1
2021-10-27 16:14:07.625000+00:00,11,49,3
2021-10-27 16:14:07.656250+00:00,13,39,4
2021-10-27 16:14:07.687500+00:00,15,32,3
2021-10-27 16:14:07.718750+00:00,14,35,1
2021-10-27 16:14:07.750000+00:00,1,53,1
2021-10-27 16:14:07.781250+00:00,-13,76,10
2021-10-27 16:14:07.812500+00:00,-18,93,18
2021-10-27 16:14:07.843750+00:00,-22,121,18
2021-10-27 16:14:07.875000+00:00,-20,127,6
2021-10-27 16:14:07.906250+00:00,-15,114,-8
2021-10-27 16:14:07.937500+00:00,-12,101,-4
2021-10-27 16:14:07.968750+00:00,-8,91,10
2021-10-27 16:14:08+00:00,-19,91,23
2021-10-27 16:14:08.031250+00:00,-25,89,28
2021-10-27 16:14:08.062500+00:00,-37,78,26
2021-10-27 16:14:08.093750+00:00,-40,73,25
2021-10-27 16:14:08.125000+00:00,-38,73,21
2021-10-27 16:14:08.156250+00:00,-37,73,17
2021-10-27 16:14:08.187500+00:00,-38,67,8
2021-10-27 16:14:08.218750+00:00,-38,65,5
2021-10-27 16:14:08.250000+00:00,-31,82,3
2021-10-27 16:14:08.281250+00:00,-33,100,3
2021-10-27 16:14:08.312500+00:00,-31,94,2
2021-10-27 16:14:08.343750+00:00,-27,95,-3
2021-10-27 16:14:08.375000+00:00,-25,108,-4
2021-10-27 16:14:08.406250+00:00,-21,122,-5
2021-10-27 16:14:08.437500+00:00,-15,109,-5
2021-10-27 16:14:08.468750+00:00,-14,103,-4
2021-10-27 16:14:08.500000+00:00,-11,100,-3
2021-10-27 16:14:08.531250+00:00,-7,99,-4
2021-10-27 16:14:08.562500+00:00,-2,92,-4
2021-10-27 16:14:08.593750+00:00,-1,86,-3
2021-10-27 16:14:08.625000+00:00,0,75,1
2021-10-27 16:14:08.656250+00:00,4,62,2
2021-10-27 16:14:08.687500+00:00,7,58,3
2021-10-27 16:14:08.718750+00:00,11,48,4
2021-10-27 16:14:08.750000+00:00,12,40,5
2021-10-27 16:14:08.781250+00:00,13,34,5
2021-10-27 16:14:08.812500+00:00,12,37,5
2021-10-27 16:14:08.843750+00:00,6,54,6
2021-10-27 16:14:08.875000+00:00,-2,74,7
2021-10-27 16:14:08.906250+00:00,-7,88,8
2021-10-27 16:14:08.937500+00:00,-13,121,5
2021-10-27 16:14:08.968750+00:00,-16,127,0
2021-10-27 16:14:09+00:00,-26,127,-5
2021-10-27 16:14:09.031250+00:00,-33,121,-2
2021-10-27 16:14:09.062500+00:00,-28,96,-3
2021-10-27 16:14:09.093750+00:00,-58,84,5
2021-10-27 16:14:09.125000+00:00,-45,76,13
2021-10-27 16:14:09.156250+00:00,-22,78,25
2021-10-27 16:14:09.187500+00:00,-23,73,26
2021-10-27 16:14:09.218750+00:00,-38,73,17
2021-10-27 16:14:09.250000+00:00,-50,69,9
2021-10-27 16:14:09.281250+00:00,-56,63,-5
2021-10-27 16:14:09.312500+00:00,-39,83,-6
2021-10-27 16:14:09.343750+00:00,-35,97,-4
2021-10-27 16:14:09.375000+00:00,-30,112,4
2021-10-27 16:14:09.406250+00:00,-26,95,3
2021-10-27 16:14:09.437500+00:00,-24,95,-1
2021-10-27 16:14:09.468750+00:00,-24,108,-3
2021-10-27 16:14:09.500000+00:00,-18,122,-7
2021-10-27 16:14:09.531250+00:00,-12,112,-7
2021-10-27 16:14:09.562500+00:00,-9,102,-5
2021-10-27 16:14:09.593750+00:00,-5,91,-3
2021-10-27 16:14:09.625000+00:00,-3,89,-2
2021-10-27 16:14:09.656250+00:00,0,84,-2
2021-10-27 16:14:09.687500+00:00,2,78,-1
2021-10-27 16:14:09.718750+00:00,0,68,-1
2021-10-27 16:14:09.750000+00:00,0,57,-1
2021-10-27 16:14:09.781250+00:00,2,54,1
2021-10-27 16:14:09.812500+00:00,7,41,2
2021-10-27 16:14:09.843750+00:00,9,34,3
2021-10-27 16:14:09.875000+00:00,11,32,4
2021-10-27 16:14:09.906250+00:00,10,35,3
2021-10-27 16:14:09.937500+00:00,8,54,2
2021-10-27 16:14:09.968750+00:00,-4,85,5
2021-10-27 16:14:10+00:00,-16,104,10
2021-10-27 16:14:10.031250+00:00,-34,127,8
2021-10-27 16:14:10.062500+00:00,-31,127,1
2021-10-27 16:14:10.093750+00:00,-20,116,-6
2021-10-27 16:14:10.125000+00:00,-20,102,-2
2021-10-27 16:14:10.156250+00:00,-21,88,2
2021-10-27 16:14:10.187500+00:00,-32,85,10
2021-10-27 16:14:10.218750+00:00,-35,83,14
2021-10-27 16:14:10.250000+00:00,-35,79,17
2021-10-27 16:14:10.281250+00:00,-34,74,18
2021-10-27 16:14:10.312500+00:00,-34,68,17
2021-10-27 16:14:10.343750+00:00,-39,66,15
2021-10-27 16:14:10.375000+00:00,-44,66,10
2021-10-27 16:14:10.406250+00:00,-38,80,3
2021-10-27 16:14:10.437500+00:00,-37,94,4
2021-10-27 16:14:10.468750+00:00,-33,114,7
2021-10-27 16:14:10.500000+00:00,-24,96,5
2021-10-27 16:14:10.531250+00:00,-20,98,-1
2021-10-27 16:14:10.562500+00:00,-18,112,-1
2021-10-27 16:14:10.593750+00:00,-12,126,-3
2021-10-27 16:14:10.625000+00:00,-9,106,-4
2021-10-27 16:14:10.656250+00:00,-9,98,-4
2021-10-27 16:14:10.687500+00:00,-7,90,-2
2021-10-27 16:14:10.718750+00:00,-5,86,-2
2021-10-27 16:14:10.750000+00:00,-4,82,-4
2021-10-27 16:14:10.781250+00:00,-2,77,-3
2021-10-27 16:14:10.812500+00:00,1,70,-3
2021-10-27 16:14:10.843750+00:00,5,59,-1
2021-10-27 16:14:10.875000+00:00,6,54,1
2021-10-27 16:14:10.906250+00:00,7,43,3
2021-10-27 16:14:10.937500+00:00,7,36,4
2021-10-27 16:14:10.968750+00:00,8,35,5
2021-10-27 16:14:11+00:00,6,50,10
2021-10-27 16:14:11.031250+00:00,3,59,11
2021-10-27 16:14:11.062500+00:00,-4,81,11
2021-10-27 16:14:11.093750+00:00,-3,93,11
2021-10-27 16:14:11.125000+00:00,-6,127,5
2021-10-27 16:14:11.156250+00:00,-11,127,0
2021-10-27 16:14:11.187500+00:00,-20,124,-5
2021-10-27 16:14:11.218750+00:00,-23,111,-4
2021-10-27 16:14:11.250000+00:00,-28,91,-1
2021-10-27 16:14:11.281250+00:00,-46,85,14
2021-10-27 16:14:11.312500+00:00,-40,81,18
2021-10-27 16:14:11.343750+00:00,-31,77,21
2021-10-27 16:14:11.375000+00:00,-31,70,22
2021-10-27 16:14:11.406250+00:00,-38,64,16
2021-10-27 16:14:11.437500+00:00,-44,63,12
2021-10-27 16:14:11.468750+00:00,-49,66,3
2021-10-27 16:14:11.500000+00:00,-37,88,0
2021-10-27 16:14:11.531250+00:00,-34,103,1
2021-10-27 16:14:11.562500+00:00,-29,115,7
2021-10-27 16:14:11.593750+00:00,-23,96,5
2021-10-27 16:14:11.625000+00:00,-21,96,0
2021-10-27 16:14:11.656250+00:00,-21,110,-1
2021-10-27 16:14:11.687500+00:00,-15,120,-5
2021-10-27 16:14:11.718750+00:00,-12,108,-6
2021-10-27 16:14:11.750000+00:00,-11,101,-6
2021-10-27 16:14:11.781250+00:00,-7,92,-5
2021-10-27 16:14:11.812500+00:00,-5,89,-5
2021-10-27 16:14:11.843750+00:00,-3,82,-7
2021-10-27 16:14:11.875000+00:00,-1,73,-4
2021-10-27 16:14:11.906250+00:00,0,67,-4
2021-10-27 16:14:11.937500+00:00,2,53,0
2021-10-27 16:14:11.968750+00:00,4,49,2
2021-10-27 16:14:12+00:00,10,38,4
2021-10-27 16:14:12.031250+00:00,12,32,4
2021-10-27 16:14:12.062500+00:00,18,35,5
2021-10-27 16:14:12.093750+00:00,16,43,7
2021-10-27 16:14:12.125000+00:00,5,67,12
2021-10-27 16:14:12.156250+00:00,-1,93,11
2021-10-27 16:14:12.187500+00:00,-5,107,9
2021-10-27 16:14:12.218750+00:00,-14,127,1
2021-10-27 16:14:12.250000+00:00,-18,127,-4
2021-10-27 16:14:12.281250+00:00,-22,109,-1
2021-10-27 16:14:12.312500+00:00,-19,100,2
2021-10-27 16:14:12.343750+00:00,-20,88,6
2021-10-27 16:14:12.375000+00:00,-47,88,17
2021-10-27 16:14:12.406250+00:00,-45,82,17
2021-10-27 16:14:12.437500+00:00,-37,73,20
2021-10-27 16:14:12.468750+00:00,-37,68,18
2021-10-27 16:14:12.500000+00:00,-34,68,11
2021-10-27 16:14:12.531250+00:00,-33,66,6
2021-10-27 16:14:12.562500+00:00,-31,64,3
2021-10-27 16:14:12.593750+00:00,-33,91,-1
2021-10-27 16:14:12.625000+00:00,-35,103,-1
2021-10-27 16:14:12.656250+00:00,-31,93,-3
2021-10-27 16:14:12.687500+00:00,-26,86,-4
2021-10-27 16:14:12.718750+00:00,-23,105,-8
2021-10-27 16:14:12.750000+00:00,-18,117,-9
2021-10-27 16:14:12.781250+00:00,-14,113,-11
2021-10-27 16:14:12.812500+00:00,-8,99,-7
2021-10-27 16:14:12.843750+00:00,-7,94,-5
2021-10-27 16:14:12.875000+00:00,-7,90,-3
2021-10-27 16:14:12.906250+00:00,-5,85,-3
2021-10-27 16:14:12.937500+00:00,-4,78,-3
2021-10-27 16:14:12.968750+00:00,-2,69,-2
2021-10-27 16:14:13+00:00,-1,66,-1
2021-10-27 16:14:13.031250+00:00,2,62,2
2021-10-27 16:14:13.062500+00:00,5,59,3
2021-10-27 16:14:13.093750+00:00,9,49,5
2021-10-27 16:14:13.125000+00:00,11,43,6
2021-10-27 16:14:13.156250+00:00,12,47,8
2021-10-27 16:14:13.187500+00:00,4,60,10
2021-10-27 16:14:13.218750+00:00,-1,66,10
2021-10-27 16:14:13.250000+00:00,-6,86,12
2021-10-27 16:14:13.281250+00:00,-8,100,12
2021-10-27 16:14:13.312500+00:00,-10,119,0
2021-10-27 16:14:13.343750+00:00,-11,119,-4
2021-10-27 16:14:13.375000+00:00,-28,108,-1
2021-10-27 16:14:13.406250+00:00,-33,91,4
2021-10-27 16:14:13.437500+00:00,-34,81,7
2021-10-27 16:14:13.468750+00:00,-46,75,10
2021-10-27 16:14:13.500000+00:00,-34,70,11
2021-10-27 16:14:13.531250+00:00,-37,69,10
2021-10-27 16:14:13.562500+00:00,-38,68,7
2021-10-27 16:14:13.593750+00:00,-39,65,2
2021-10-27 16:14:13.625000+00:00,-37,63,1
2021-10-27 16:14:13.656250+00:00,-34,64,2
2021-10-27 16:14:13.687500+00:00,-34,88,4
2021-10-27 16:14:13.718750+00:00,-41,100,2
2021-10-27 16:14:13.750000+00:00,-37,98,0
2021-10-27 16:14:13.781250+00:00,-33,90,2
2021-10-27 16:14:13.812500+00:00,-37,107,-2
2021-10-27 16:14:13.843750+00:00,-25,117,-7
2021-10-27 16:14:13.875000+00:00,-18,110,-8
2021-10-27 16:14:13.906250+00:00,-9,92,-5
2021-10-27 16:14:13.937500+00:00,-8,84,-4
2021-10-27 16:14:13.968750+00:00,-5,75,3
2021-10-27 16:14:14+00:00,-4,69,7
2021-10-27 16:14:14.031250+00:00,-5,65,5
2021-10-27 16:14:14.062500+00:00,-3,61,3
2021-10-27 16:14:14.093750+00:00,-3,59,1
2021-10-27 16:14:14.125000+00:00,1,54,-1
2021-10-27 16:14:14.156250+00:00,3,54,-1
2021-10-27 16:14:14.187500+00:00,2,49,-2
2021-10-27 16:14:14.218750+00:00,6,47,0
2021-10-27 16:14:14.250000+00:00,8,56,2
2021-10-27 16:14:14.281250+00:00,-2,74,3
2021-10-27 16:14:14.312500+00:00,-8,79,3
2021-10-27 16:14:14.343750+00:00,-14,94,7
2021-10-27 16:14:14.375000+00:00,-16,107,7
2021-10-27 16:14:14.406250+00:00,-22,122,-2
2021-10-27 16:14:14.437500+00:00,-24,112,-5
2021-10-27 16:14:14.468750+00:00,-25,85,-1
2021-10-27 16:14:14.500000+00:00,-25,75,4
2021-10-27 16:14:14.531250+00:00,-25,75,8
2021-10-27 16:14:14.562500+00:00,-26,73,10
2021-10-27 16:14:14.593750+00:00,-28,73,10
2021-10-27 16:14:14.625000+00:00,-29,65,14
2021-10-27 16:14:14.656250+00:00,-29,61,16
2021-10-27 16:14:14.687500+00:00,-35,63,20
2021-10-27 16:14:14.718750+00:00,-39,66,18
2021-10-27 16:14:14.750000+00:00,-40,71,13
2021-10-27 16:14:14.781250+00:00,-36,98,6
2021-10-27 16:14:14.812500+00:00,-34,114,6
2021-10-27 16:14:14.843750+00:00,-21,116,7
2021-10-27 16:14:14.875000+00:00,-16,99,5
2021-10-27 16:14:14.906250+00:00,-15,102,0
2021-10-27 16:14:14.937500+00:00,-12,121,-2
2021-10-27 16:14:14.968750+00:00,-10,120,-2
2021-10-27 16:14:15+00:00,-8,99,-5
2021-10-27 16:14:15.031250+00:00,-8,88,-5
2021-10-27 16:14:15.062500+00:00,-5,73,-5
2021-10-27 16:14:15.093750+00:00,-4,71,-6
2021-10-27 16:14:15.125000+00:00,-2,69,-8
2021-10-27 16:14:15.156250+00:00,-2,67,-8
2021-10-27 16:14:15.187500+00:00,-2,66,-9
2021-10-27 16:14:15.218750+00:00,-2,61,-7
2021-10-27 16:14:15.250000+00:00,-3,59,-6
2021-10-27 16:14:15.281250+00:00,1,50,-2
2021-10-27 16:14:15.312500+00:00,4,47,-1
2021-10-27 16:14:15.343750+00:00,5,49,1
2021-10-27 16:14:15.375000+00:00,-2,52,6
2021-10-27 16:14:15.406250+00:00,-7,58,8
2021-10-27 16:14:15.437500+00:00,-13,80,12
2021-10-27 16:14:15.468750+00:00,-14,93,10
2021-10-27 16:14:15.500000+00:00,-16,107,3
2021-10-27 16:14:15.531250+00:00,-17,101,1
2021-10-27 16:14:15.562500+00:00,-18,85,9
2021-10-27 16:14:15.593750+00:00,-14,84,11
2021-10-27 16:14:15.625000+00:00,-15,86,10
2021-10-27 16:14:15.656250+00:00,-24,89,12
2021-10-27 16:14:15.687500+00:00,-29,87,13
2021-10-27 16:14:15.718750+00:00,-32,79,19
2021-10-27 16:14:15.750000+00:00,-35,80,23
2021-10-27 16:14:15.781250+00:00,-43,76,22
2021-10-27 16:14:15.812500+00:00,-45,70,15
2021-10-27 16:14:15.843750+00:00,-40,78,12
2021-10-27 16:14:15.875000+00:00,-33,108,15
2021-10-27 16:14:15.906250+00:00,-29,117,14
2021-10-27 16:14:15.937500+00:00,-22,94,3
2021-10-27 16:14:15.968750+00:00,-20,95,1
2021-10-27 16:14:16+00:00,-16,113,0
2021-10-27 16:14:16.031250+00:00,-9,116,0
2021-10-27 16:14:16.062500+00:00,-7,110,-1
2021-10-27 16:14:16.093750+00:00,-6,93,-4
2021-10-27 16:14:16.125000+00:00,-5,87,-5
2021-10-27 16:14:16.156250+00:00,-5,82,-9
2021-10-27 16:14:16.187500+00:00,-5,81,-11
2021-10-27 16:14:16.218750+00:00,-5,76,-9
2021-10-27 16:14:16.250000+00:00,-6,69,-9
2021-10-27 16:14:16.281250+00:00,-4,64,-8
2021-10-27 16:14:16.312500+00:00,1,59,-5
2021-10-27 16:14:16.343750+00:00,3,52,-4
2021-10-27 16:14:16.375000+00:00,7,36,2
2021-10-27 16:14:16.406250+00:00,9,32,3
2021-10-27 16:14:16.437500+00:00,8,35,7
2021-10-27 16:14:16.468750+00:00,3,49,9
2021-10-27 16:14:16.500000+00:00,0,60,10
2021-10-27 16:14:16.531250+00:00,-4,89,12
2021-10-27 16:14:16.562500+00:00,-7,106,10
2021-10-27 16:14:16.593750+00:00,-24,127,5
2021-10-27 16:14:16.625000+00:00,-30,113,14
2021-10-27 16:14:16.656250+00:00,-17,101,8
2021-10-27 16:14:16.687500+00:00,3,96,5
2021-10-27 16:14:16.718750+00:00,-16,95,15
2021-10-27 16:14:16.750000+00:00,-48,84,18
2021-10-27 16:14:16.781250+00:00,-30,74,17
2021-10-27 16:14:16.812500+00:00,-36,69,8
2021-10-27 16:14:16.843750+00:00,-56,63,-6
2021-10-27 16:14:16.875000+00:00,-59,55,-11
2021-10-27 16:14:16.906250+00:00,-50,59,-12
2021-10-27 16:14:16.937500+00:00,-39,71,-8
2021-10-27 16:14:16.968750+00:00,-29,103,-2
2021-10-27 16:14:17+00:00,-17,108,2
2021-10-27 16:14:17.031250+00:00,-14,93,0
2021-10-27 16:14:17.062500+00:00,-16,100,-6
2021-10-27 16:14:17.093750+00:00,-18,108,-6
2021-10-27 16:14:17.125000+00:00,-12,117,-9
2021-10-27 16:14:17.156250+00:00,-11,116,-10
2021-10-27 16:14:17.187500+00:00,-7,97,-7
2021-10-27 16:14:17.218750+00:00,-4,89,-4
2021-10-27 16:14:17.250000+00:00,-2,80,-2
2021-10-27 16:14:17.281250+00:00,-4,76,-2
2021-10-27 16:14:17.312500+00:00,-3,73,-1
2021-10-27 16:14:17.343750+00:00,-3,67,-3
2021-10-27 16:14:17.375000+00:00,-3,64,-3
2021-10-27 16:14:17.406250+00:00,0,59,1
2021-10-27 16:14:17.437500+00:00,1,54,2
2021-10-27 16:14:17.468750+00:00,5,39,5
2021-10-27 16:14:17.500000+00:00,9,35,5
2021-10-27 16:14:17.531250+00:00,9,39,5
2021-10-27 16:14:17.562500+00:00,4,56,6
2021-10-27 16:14:17.593750+00:00,-1,65,6
2021-10-27 16:14:17.625000+00:00,-7,91,8
2021-10-27 16:14:17.656250+00:00,-12,110,7
2021-10-27 16:14:17.687500+00:00,-23,127,-4
2021-10-27 16:14:17.718750+00:00,-29,106,-7
2021-10-27 16:14:17.750000+00:00,-28,92,-6
2021-10-27 16:14:17.781250+00:00,-23,80,-4
2021-10-27 16:14:17.812500+00:00,-27,83,3
2021-10-27 16:14:17.843750+00:00,-19,81,14
2021-10-27 16:14:17.875000+00:00,-21,78,17
2021-10-27 16:14:17.906250+00:00,-30,67,18
2021-10-27 16:14:17.937500+00:00,-35,67,17
2021-10-27 16:14:17.968750+00:00,-36,65,17
2021-10-27 16:14:18+00:00,-37,67,16
2021-10-27 16:14:18.031250+00:00,-33,72,14
2021-10-27 16:14:18.062500+00:00,-31,99,13
2021-10-27 16:14:18.093750+00:00,-33,111,14
2021-10-27 16:14:18.125000+00:00,-26,100,10
2021-10-27 16:14:18.156250+00:00,-16,100,5
2021-10-27 16:14:18.187500+00:00,-15,109,1
2021-10-27 16:14:18.218750+00:00,-11,121,-4
2021-10-27 16:14:18.250000+00:00,-9,116,-4
2021-10-27 16:14:18.281250+00:00,-9,98,-4
2021-10-27 16:14:18.312500+00:00,-9,91,-2
2021-10-27 16:14:18.343750+00:00,-5,83,-2
2021-10-27 16:14:18.375000+00:00,-3,78,-5
2021-10-27 16:14:18.406250+00:00,-2,75,-5
2021-10-27 16:14:18.437500+00:00,-3,67,-6
2021-10-27 16:14:18.468750+00:00,-3,64,-5
2021-10-27 16:14:18.500000+00:00,1,59,-3
2021-10-27 16:14:18.531250+00:00,5,55,-2
2021-10-27 16:14:18.562500+00:00,10,40,2
2021-10-27 16:14:18.593750+00:00,15,36,0
2021-10-27 16:14:18.625000+00:00,13,41,-1
2021-10-27 16:14:18.656250+00:00,2,60,2
2021-10-27 16:14:18.687500+00:00,-1,71,4
2021-10-27 16:14:18.718750+00:00,-7,105,6
2021-10-27 16:14:18.750000+00:00,-10,127,2
2021-10-27 16:14:18.781250+00:00,-21,127,-14
2021-10-27 16:14:18.812500+00:00,-32,104,-15
2021-10-27 16:14:18.843750+00:00,-30,86,-12
2021-10-27 16:14:18.875000+00:00,-32,76,1
2021-10-27 16:14:18.906250+00:00,-24,78,6
2021-10-27 16:14:18.937500+00:00,-21,84,8
2021-10-27 16:14:18.968750+00:00,-24,83,8
2021-10-27 16:14:19+00:00,-28,72,10
2021-10-27 16:14:19.031250+00:00,-39,73,17
2021-10-27 16:14:19.062500+00:00,-41,70,17
2021-10-27 16:14:19.093750+00:00,-37,67,15
2021-10-27 16:14:19.125000+00:00,-36,76,15
2021-10-27 16:14:19.156250+00:00,-35,105,18
2021-10-27 16:14:19.187500+00:00,-31,118,17
2021-10-27 16:14:19.218750+00:00,-14,98,9
2021-10-27 16:14:19.250000+00:00,-13,103,3
2021-10-27 16:14:19.281250+00:00,-11,112,4
2021-10-27 16:14:19.312500+00:00,-9,116,3
2021-10-27 16:14:19.343750+00:00,-9,107,0
2021-10-27 16:14:19.375000+00:00,-10,89,-2
2021-10-27 16:14:19.406250+00:00,-9,83,-4
2021-10-27 16:14:19.437500+00:00,-7,75,-8
2021-10-27 16:14:19.468750+00:00,-5,71,-10
2021-10-27 16:14:19.500000+00:00,-4,71,-9
2021-10-27 16:14:19.531250+00:00,-5,67,-9
2021-10-27 16:14:19.562500+00:00,-3,63,-8
2021-10-27 16:14:19.593750+00:00,-2,61,-6
2021-10-27 16:14:19.625000+00:00,0,59,-5
2021-10-27 16:14:19.656250+00:00,6,46,0
2021-10-27 16:14:19.687500+00:00,8,45,1
2021-10-27 16:14:19.718750+00:00,6,48,2
2021-10-27 16:14:19.750000+00:00,-5,59,3
2021-10-27 16:14:19.781250+00:00,-9,65,5
2021-10-27 16:14:19.812500+00:00,-11,86,8
2021-10-27 16:14:19.843750+00:00,-12,100,6
2021-10-27 16:14:19.875000+00:00,-15,117,0
2021-10-27 16:14:19.906250+00:00,-22,105,0
2021-10-27 16:14:19.937500+00:00,-23,97,3
2021-10-27 16:14:19.968750+00:00,-22,91,5
2021-10-27 16:14:20+00:00,-23,88,7
2021-10-27 16:14:20.031250+00:00,-32,83,12
2021-10-27 16:14:20.062500+00:00,-32,79,16
2021-10-27 16:14:20.093750+00:00,-29,70,22
2021-10-27 16:14:20.125000+00:00,-36,69,21
2021-10-27 16:14:20.156250+00:00,-41,68,18
2021-10-27 16:14:20.187500+00:00,-41,72,14
2021-10-27 16:14:20.218750+00:00,-38,80,11
2021-10-27 16:14:20.250000+00:00,-33,115,15
2021-10-27 16:14:20.281250+00:00,-29,127,15
2021-10-27 16:14:20.312500+00:00,-14,96,7
2021-10-27 16:14:20.343750+00:00,-14,108,2
2021-10-27 16:14:20.375000+00:00,-14,117,2
2021-10-27 16:14:20.406250+00:00,-10,119,-1
2021-10-27 16:14:20.437500+00:00,-10,111,-2
2021-10-27 16:14:20.468750+00:00,-9,94,-7
2021-10-27 16:14:20.500000+00:00,-5,85,-8
2021-10-27 16:14:20.531250+00:00,-2,82,-9
2021-10-27 16:14:20.562500+00:00,-2,77,-9
2021-10-27 16:14:20.593750+00:00,-1,73,-8
2021-10-27 16:14:20.625000+00:00,-3,65,-9
2021-10-27 16:14:20.656250+00:00,-3,58,-7
2021-10-27 16:14:20.687500+00:00,1,51,-4
2021-10-27 16:14:20.718750+00:00,3,41,-1
2021-10-27 16:14:20.750000+00:00,3,34,3
2021-10-27 16:14:20.781250+00:00,3,34,8
2021-10-27 16:14:20.812500+00:00,2,36,10
2021-10-27 16:14:20.843750+00:00,0,48,10
2021-10-27 16:14:20.875000+00:00,-1,56,8
2021-10-27 16:14:20.906250+00:00,-2,81,10
2021-10-27 16:14:20.937500+00:00,-8,120,11
2021-10-27 16:14:20.968750+00:00,-14,127,9
2021-10-27 16:14:21+00:00,-25,127,2
2021-10-27 16:14:21.031250+00:00,-26,112,0
2021-10-27 16:14:21.062500+00:00,-23,93,-3
2021-10-27 16:14:21.093750+00:00,-29,87,1
2021-10-27 16:14:21.125000+00:00,-35,82,14
2021-10-27 16:14:21.156250+00:00,-26,78,21
2021-10-27 16:14:21.187500+00:00,-26,76,23
2021-10-27 16:14:21.218750+00:00,-35,64,18
2021-10-27 16:14:21.250000+00:00,-40,61,15
2021-10-27 16:14:21.281250+00:00,-46,62,13
2021-10-27 16:14:21.312500+00:00,-42,66,11
2021-10-27 16:14:21.343750+00:00,-26,79,7
2021-10-27 16:14:21.375000+00:00,-24,109,13
2021-10-27 16:14:21.406250+00:00,-22,124,14
2021-10-27 16:14:21.437500+00:00,-11,101,14
2021-10-27 16:14:21.468750+00:00,-11,99,8
2021-10-27 16:14:21.500000+00:00,-12,117,0
2021-10-27 16:14:21.531250+00:00,-12,127,-2
2021-10-27 16:14:21.562500+00:00,-11,122,-5
2021-10-27 16:14:21.593750+00:00,-11,100,-4
2021-10-27 16:14:21.625000+00:00,-9,92,-3
2021-10-27 16:14:21.656250+00:00,-1,76,-4
2021-10-27 16:14:21.687500+00:00,-1,70,-5
2021-10-27 16:14:21.718750+00:00,0,59,-4
2021-10-27 16:14:21.750000+00:00,-1,54,-4
2021-10-27 16:14:21.781250+00:00,-2,48,-2
2021-10-27 16:14:21.812500+00:00,4,43,-2
2021-10-27 16:14:21.843750+00:00,7,41,-3
2021-10-27 16:14:21.875000+00:00,9,37,-1
2021-10-27 16:14:21.906250+00:00,8,38,-1
2021-10-27 16:14:21.937500+00:00,5,47,0
2021-10-27 16:14:21.968750+00:00,2,56,2
2021-10-27 16:14:22+00:00,-7,77,4
2021-10-27 16:14:22.031250+00:00,-22,105,9
2021-10-27 16:14:22.062500+00:00,-30,121,9
2021-10-27 16:14:22.093750+00:00,-34,127,3
2021-10-27 16:14:22.125000+00:00,-28,124,1
2021-10-27 16:14:22.156250+00:00,-24,99,10
2021-10-27 16:14:22.187500+00:00,-22,93,15
2021-10-27 16:14:22.218750+00:00,-25,83,20
2021-10-27 16:14:22.250000+00:00,-20,76,28
2021-10-27 16:14:22.281250+00:00,-20,76,29
2021-10-27 16:14:22.312500+00:00,-30,66,21
2021-10-27 16:14:22.343750+00:00,-35,61,18
2021-10-27 16:14:22.375000+00:00,-45,55,9
2021-10-27 16:14:22.406250+00:00,-46,55,7
2021-10-27 16:14:22.437500+00:00,-35,65,3
2021-10-27 16:14:22.468750+00:00,-26,100,3
2021-10-27 16:14:22.500000+00:00,-21,120,6
2021-10-27 16:14:22.531250+00:00,-7,108,0
2021-10-27 16:14:22.562500+00:00,-6,95,-3
2021-10-27 16:14:22.593750+00:00,-3,115,-7
2021-10-27 16:14:22.625000+00:00,-6,121,-8
2021-10-27 16:14:22.656250+00:00,-16,104,-11
2021-10-27 16:14:22.687500+00:00,-16,93,-10
2021-10-27 16:14:22.718750+00:00,-12,88,-10
2021-10-27 16:14:22.750000+00:00,-2,73,-6
2021-10-27 16:14:22.781250+00:00,1,65,-3
2021-10-27 16:14:22.812500+00:00,1,49,-2
2021-10-27 16:14:22.843750+00:00,0,41,-1
2021-10-27 16:14:22.875000+00:00,0,35,2
2021-10-27 16:14:22.906250+00:00,3,34,3
2021-10-27 16:14:22.937500+00:00,4,33,2
2021-10-27 16:14:22.968750+00:00,4,32,2
2021-10-27 16:14:23+00:00,1,33,2
2021-10-27 16:14:23.031250+00:00,-8,32,1
2021-10-27 16:14:23.062500+00:00,-11,30,3
2021-10-27 16:14:23.093750+00:00,-19,51,-4
2021-10-27 16:14:23.125000+00:00,-29,88,-7
2021-10-27 16:14:23.156250+00:00,-30,101,-2
2021-10-27 16:14:23.187500+00:00,-44,121,6
2021-10-27 16:14:23.218750+00:00,-55,127,9
2021-10-27 16:14:23.250000+00:00,-70,124,-1
2021-10-27 16:14:23.281250+00:00,-74,104,-2
2021-10-27 16:14:23.312500+00:00,-61,62,4
2021-10-27 16:14:23.343750+00:00,-22,45,22
2021-10-27 16:14:23.375000+00:00,-11,37,29
2021-10-27 16:14:23.406250+00:00,0,45,31
2021-10-27 16:14:23.437500+00:00,-3,49,27
2021-10-27 16:14:23.468750+00:00,-4,49,22
2021-10-27 16:14:23.500000+00:00,-2,51,20
2021-10-27 16:14:23.531250+00:00,-3,83,20
2021-10-27 16:14:23.562500+00:00,-10,102,7
2021-10-27 16:14:23.593750+00:00,-13,105,-7
2021-10-27 16:14:23.625000+00:00,-14,127,-18
2021-10-27 16:14:23.656250+00:00,-11,117,-23
2021-10-27 16:14:23.687500+00:00,-14,95,-18
2021-10-27 16:14:23.718750+00:00,-22,86,-13
2021-10-27 16:14:23.750000+00:00,-34,66,-5
2021-10-27 16:14:23.781250+00:00,-33,53,-5
2021-10-27 16:14:23.812500+00:00,-29,46,-5
2021-10-27 16:14:23.843750+00:00,-21,44,-4
2021-10-27 16:14:23.875000+00:00,-14,43,-2
2021-10-27 16:14:23.906250+00:00,0,39,3
2021-10-27 16:14:23.937500+00:00,6,38,6
2021-10-27 16:14:23.968750+00:00,9,39,8
2021-10-27 16:14:24+00:00,3,44,8
2021-10-27 16:14:24.031250+00:00,-2,52,6
2021-10-27 16:14:24.062500+00:00,-8,63,-1
2021-10-27 16:14:24.093750+00:00,-16,69,-11
2021-10-27 16:14:24.125000+00:00,-20,83,-11
2021-10-27 16:14:24.156250+00:00,-21,89,-6
2021-10-27 16:14:24.187500+00:00,-22,110,16
2021-10-27 16:14:24.218750+00:00,-16,114,36
2021-10-27 16:14:24.250000+00:00,-11,104,27
2021-10-27 16:14:24.281250+00:00,-3,79,17
2021-10-27 16:14:24.312500+00:00,-5,67,19
2021-10-27 16:14:24.343750+00:00,-12,53,24
2021-10-27 16:14:24.375000+00:00,-16,47,23
2021-10-27 16:14:24.406250+00:00,-24,40,19
2021-10-27 16:14:24.437500+00:00,-31,35,20
2021-10-27 16:14:24.468750+00:00,-31,33,19
2021-10-27 16:14:24.500000+00:00,-25,33,16
2021-10-27 16:14:24.531250+00:00,-24,36,15
2021-10-27 16:14:24.562500+00:00,-22,51,10
2021-10-27 16:14:24.593750+00:00,-20,73,7
2021-10-27 16:14:24.625000+00:00,-19,77,4
2021-10-27 16:14:24.656250+00:00,-15,79,0
2021-10-27 16:14:24.687500+00:00,-13,87,0
2021-10-27 16:14:24.718750+00:00,-8,125,-5
2021-10-27 16:14:24.750000+00:00,-14,127,-6
2021-10-27 16:14:24.781250+00:00,-18,116,-15
2021-10-27 16:14:24.812500+00:00,-22,110,-10
2021-10-27 16:14:24.843750+00:00,-21,103,-8
2021-10-27 16:14:24.875000+00:00,-16,77,0
2021-10-27 16:14:24.906250+00:00,-17,62,4
2021-10-27 16:14:24.937500+00:00,-17,38,9
2021-10-27 16:14:24.968750+00:00,-15,33,12
2021-10-27 16:14:25+00:00,-9,27,21
2021-10-27 16:14:25.031250+00:00,-5,23,22
2021-10-27 16:14:25.062500+00:00,1,22,18
2021-10-27 16:14:25.093750+00:00,-1,27,10
2021-10-27 16:14:25.125000+00:00,-3,31,7
2021-10-27 16:14:25.156250+00:00,-7,40,4
2021-10-27 16:14:25.187500+00:00,-10,42,1
2021-10-27 16:14:25.218750+00:00,-14,48,1
2021-10-27 16:14:25.250000+00:00,-16,65,0
2021-10-27 16:14:25.281250+00:00,-18,74,-2
2021-10-27 16:14:25.312500+00:00,-24,97,-8
2021-10-27 16:14:25.343750+00:00,-32,107,-6
2021-10-27 16:14:25.375000+00:00,-47,115,4
2021-10-27 16:14:25.406250+00:00,-53,117,15
2021-10-27 16:14:25.437500+00:00,-41,100,21
2021-10-27 16:14:25.468750+00:00,-27,75,18
2021-10-27 16:14:25.500000+00:00,-18,64,20
2021-10-27 16:14:25.531250+00:00,-2,56,31
2021-10-27 16:14:25.562500+00:00,-1,48,34
2021-10-27 16:14:25.593750+00:00,-10,33,33
2021-10-27 16:14:25.625000+00:00,-17,26,30
2021-10-27 16:14:25.656250+00:00,-32,23,27
2021-10-27 16:14:25.687500+00:00,-31,23,21
2021-10-27 16:14:25.718750+00:00,-27,27,17
2021-10-27 16:14:25.750000+00:00,-19,45,10
2021-10-27 16:14:25.781250+00:00,-15,59,6
2021-10-27 16:14:25.812500+00:00,-11,87,0
2021-10-27 16:14:25.843750+00:00,-8,90,-3
2021-10-27 16:14:25.875000+00:00,-6,76,-4
2021-10-27 16:14:25.906250+00:00,-13,109,-3
2021-10-27 16:14:25.937500+00:00,-25,123,-1
2021-10-27 16:14:25.968750+00:00,-38,92,-5
2021-10-27 16:14:26+00:00,-35,90,-10
2021-10-27 16:14:26.031250+00:00,-30,112,-7
2021-10-27 16:14:26.062500+00:00,-30,111,-2
2021-10-27 16:14:26.093750+00:00,-21,89,15
2021-10-27 16:14:26.125000+00:00,-6,59,27
2021-10-27 16:14:26.156250+00:00,2,50,30
2021-10-27 16:14:26.187500+00:00,9,43,26
2021-10-27 16:14:26.218750+00:00,10,39,21
2021-10-27 16:14:26.250000+00:00,9,32,16
2021-10-27 16:14:26.281250+00:00,4,30,13
2021-10-27 16:14:26.312500+00:00,-3,33,9
2021-10-27 16:14:26.343750+00:00,-9,59,14
2021-10-27 16:14:26.375000+00:00,-10,71,13
2021-10-27 16:14:26.406250+00:00,-9,89,3
2021-10-27 16:14:26.437500+00:00,-6,95,-2
2021-10-27 16:14:26.468750+00:00,-6,100,-1
2021-10-27 16:14:26.500000+00:00,-7,93,4
2021-10-27 16:14:26.531250+00:00,-16,88,15
2021-10-27 16:14:26.562500+00:00,-28,91,6
2021-10-27 16:14:26.593750+00:00,-28,85,-2
2021-10-27 16:14:26.625000+00:00,-24,60,-3
2021-10-27 16:14:26.656250+00:00,-21,49,1
2021-10-27 16:14:26.687500+00:00,-18,39,8
2021-10-27 16:14:26.718750+00:00,-16,38,11
2021-10-27 16:14:26.750000+00:00,-16,41,10
2021-10-27 16:14:26.781250+00:00,-24,38,7
2021-10-27 16:14:26.812500+00:00,-28,37,6
2021-10-27 16:14:26.843750+00:00,-32,47,5
2021-10-27 16:14:26.875000+00:00,-35,55,7
2021-10-27 16:14:26.906250+00:00,-36,58,9
2021-10-27 16:14:26.937500+00:00,-34,58,6
2021-10-27 16:14:26.968750+00:00,-27,72,6
2021-10-27 16:14:27+00:00,-16,78,3
2021-10-27 16:14:27.031250+00:00,-14,88,1
2021-10-27 16:14:27.062500+00:00,-19,119,-1
2021-10-27 16:14:27.093750+00:00,-25,127,2
2021-10-27 16:14:27.125000+00:00,-23,100,2
2021-10-27 16:14:27.156250+00:00,-21,93,1
2021-10-27 16:14:27.187500+00:00,-17,103,0
2021-10-27 16:14:27.218750+00:00,-12,116,-1
2021-10-27 16:14:27.250000+00:00,-8,108,-1
2021-10-27 16:14:27.281250+00:00,-5,91,3
2021-10-27 16:14:27.312500+00:00,-3,83,3
2021-10-27 16:14:27.343750+00:00,1,66,3
2021-10-27 16:14:27.375000+00:00,3,60,2
2021-10-27 16:14:27.406250+00:00,4,50,2
2021-10-27 16:14:27.437500+00:00,3,41,1
2021-10-27 16:14:27.468750+00:00,0,37,2
2021-10-27 16:14:27.500000+00:00,-10,32,1
2021-10-27 16:14:27.531250+00:00,-11,29,2
2021-10-27 16:14:27.562500+00:00,-11,24,3
2021-10-27 16:14:27.593750+00:00,-11,23,3
2021-10-27 16:14:27.625000+00:00,-11,25,6
2021-10-27 16:14:27.656250+00:00,-12,34,7
2021-10-27 16:14:27.687500+00:00,-13,42,7
2021-10-27 16:14:27.718750+00:00,-13,64,6
2021-10-27 16:14:27.750000+00:00,-12,76,5
2021-10-27 16:14:27.781250+00:00,-12,104,5
2021-10-27 16:14:27.812500+00:00,-14,117,5
2021-10-27 16:14:27.843750+00:00,-16,127,2
2021-10-27 16:14:27.875000+00:00,-15,127,-8
2021-10-27 16:14:27.906250+00:00,-25,127,-4
2021-10-27 16:14:27.937500+00:00,-47,86,18
2021-10-27 16:14:27.968750+00:00,-48,65,28
2021-10-27 16:14:28+00:00,-33,81,29
2021-10-27 16:14:28.031250+00:00,-32,79,25
2021-10-27 16:14:28.062500+00:00,-28,57,18
2021-10-27 16:14:28.093750+00:00,-21,39,16
2021-10-27 16:14:28.125000+00:00,-21,35,15
2021-10-27 16:14:28.156250+00:00,-26,29,12
2021-10-27 16:14:28.187500+00:00,-28,28,10
2021-10-27 16:14:28.218750+00:00,-25,29,8
2021-10-27 16:14:28.250000+00:00,-24,30,7
2021-10-27 16:14:28.281250+00:00,-19,32,6
2021-10-27 16:14:28.312500+00:00,-16,37,4
2021-10-27 16:14:28.343750+00:00,-15,41,2
2021-10-27 16:14:28.375000+00:00,-13,55,0
2021-10-27 16:14:28.406250+00:00,-14,64,-1
2021-10-27 16:14:28.437500+00:00,-14,91,-4
2021-10-27 16:14:28.468750+00:00,-16,123,-4
2021-10-27 16:14:28.500000+00:00,-14,127,-4
2021-10-27 16:14:28.531250+00:00,-9,127,-4
2021-10-27 16:14:28.562500+00:00,-7,120,-4
2021-10-27 16:14:28.593750+00:00,-6,99,4
2021-10-27 16:14:28.625000+00:00,-8,89,7
2021-10-27 16:14:28.656250+00:00,-15,52,15
2021-10-27 16:14:28.687500+00:00,-17,39,17
2021-10-27 16:14:28.718750+00:00,-19,22,20
2021-10-27 16:14:28.750000+00:00,-15,18,21
2021-10-27 16:14:28.781250+00:00,-10,19,20
2021-10-27 16:14:28.812500+00:00,-2,22,15
2021-10-27 16:14:28.843750+00:00,-3,25,13
2021-10-27 16:14:28.875000+00:00,-4,37,14
2021-10-27 16:14:28.906250+00:00,-5,46,16
2021-10-27 16:14:28.937500+00:00,-3,70,10
2021-10-27 16:14:28.968750+00:00,4,89,-13
2021-10-27 16:14:29+00:00,1,100,-16
2021-10-27 16:14:29.031250+00:00,-19,127,-9
2021-10-27 16:14:29.062500+00:00,-37,127,0
2021-10-27 16:14:29.093750+00:00,-52,99,13
2021-10-27 16:14:29.125000+00:00,-41,81,14
2021-10-27 16:14:29.156250+00:00,-34,77,10
2021-10-27 16:14:29.187500+00:00,-23,55,8
2021-10-27 16:14:29.218750+00:00,-13,42,11
2021-10-27 16:14:29.250000+00:00,-6,38,20
2021-10-27 16:14:29.281250+00:00,-6,35,22
2021-10-27 16:14:29.312500+00:00,-15,24,18
2021-10-27 16:14:29.343750+00:00,-23,20,12
2021-10-27 16:14:29.375000+00:00,-26,23,9
2021-10-27 16:14:29.406250+00:00,-26,36,3
2021-10-27 16:14:29.437500+00:00,-26,44,3
2021-10-27 16:14:29.468750+00:00,-22,67,4
2021-10-27 16:14:29.500000+00:00,-18,78,2
2021-10-27 16:14:29.531250+00:00,-10,101,0
2021-10-27 16:14:29.562500+00:00,-7,127,1
2021-10-27 16:14:29.593750+00:00,-10,127,2
2021-10-27 16:14:29.625000+00:00,-13,120,-5
2021-10-27 16:14:29.656250+00:00,-15,104,-6
2021-10-27 16:14:29.687500+00:00,-14,86,-2
2021-10-27 16:14:29.718750+00:00,-13,77,2
2021-10-27 16:14:29.750000+00:00,-14,51,12
2021-10-27 16:14:29.781250+00:00,-12,34,16
2021-10-27 16:14:29.812500+00:00,-11,29,15
2021-10-27 16:14:29.843750+00:00,-5,24,13
2021-10-27 16:14:29.875000+00:00,-2,23,11
2021-10-27 16:14:29.906250+00:00,-1,22,9
2021-10-27 16:14:29.937500+00:00,-3,25,8
2021-10-27 16:14:29.968750+00:00,-7,36,7
2021-10-27 16:14:30+00:00,-10,55,5
2021-10-27 16:14:30.031250+00:00,-12,66,4
2021-10-27 16:14:30.062500+00:00,-13,81,0
2021-10-27 16:14:30.093750+00:00,-13,87,-1
2021-10-27 16:14:30.125000+00:00,-13,96,1
2021-10-27 16:14:30.156250+00:00,-14,106,1
2021-10-27 16:14:30.187500+00:00,-29,115,4
2021-10-27 16:14:30.218750+00:00,-34,95,12
2021-10-27 16:14:30.250000+00:00,-31,91,14
2021-10-27 16:14:30.281250+00:00,-19,83,11
2021-10-27 16:14:30.312500+00:00,-15,71,14
2021-10-27 16:14:30.343750+00:00,-12,49,18
2021-10-27 16:14:30.375000+00:00,-14,42,18
2021-10-27 16:14:30.406250+00:00,-19,31,16
2021-10-27 16:14:30.437500+00:00,-28,27,12
2021-10-27 16:14:30.468750+00:00,-31,25,9
2021-10-27 16:14:30.500000+00:00,-28,28,5
2021-10-27 16:14:30.531250+00:00,-25,33,4
2021-10-27 16:14:30.562500+00:00,-20,45,7
2021-10-27 16:14:30.593750+00:00,-20,54,8
2021-10-27 16:14:30.625000+00:00,-14,74,8
2021-10-27 16:14:30.656250+00:00,-8,106,3
2021-10-27 16:14:30.687500+00:00,-5,115,0
2021-10-27 16:14:30.718750+00:00,-3,127,-2
2021-10-27 16:14:30.750000+00:00,-8,127,-1
2021-10-27 16:14:30.781250+00:00,-14,112,-3
2021-10-27 16:14:30.812500+00:00,-15,100,-2
2021-10-27 16:14:30.843750+00:00,-17,78,4
2021-10-27 16:14:30.875000+00:00,-19,54,11
2021-10-27 16:14:30.906250+00:00,-16,44,13
2021-10-27 16:14:30.937500+00:00,-11,27,13
2021-10-27 16:14:30.968750+00:00,-8,23,11
2021-10-27 16:14:31+00:00,-3,21,8
2021-10-27 16:14:31.031250+00:00,-1,21,7
2021-10-27 16:14:31.062500+00:00,-3,28,6
2021-10-27 16:14:31.093750+00:00,-7,40,5
2021-10-27 16:14:31.125000+00:00,-9,45,5
2021-10-27 16:14:31.156250+00:00,-14,57,0
2021-10-27 16:14:31.187500+00:00,-15,61,-3
2021-10-27 16:14:31.218750+00:00,-15,75,-5
2021-10-27 16:14:31.250000+00:00,-15,80,-4
2021-10-27 16:14:31.281250+00:00,-20,105,-4
2021-10-27 16:14:31.312500+00:00,-37,110,5
2021-10-27 16:14:31.343750+00:00,-41,101,13
2021-10-27 16:14:31.375000+00:00,-40,98,21
2021-10-27 16:14:31.406250+00:00,-37,94,19
2021-10-27 16:14:31.437500+00:00,-35,67,23
2021-10-27 16:14:31.468750+00:00,-32,56,29
2021-10-27 16:14:31.500000+00:00,-23,40,34
2021-10-27 16:14:31.531250+00:00,-24,29,28
2021-10-27 16:14:31.562500+00:00,-27,28,25
2021-10-27 16:14:31.593750+00:00,-29,24,20
2021-10-27 16:14:31.625000+00:00,-26,24,17
2021-10-27 16:14:31.656250+00:00,-20,31,8
2021-10-27 16:14:31.687500+00:00,-22,36,2
2021-10-27 16:14:31.718750+00:00,-26,55,-1
2021-10-27 16:14:31.750000+00:00,-25,81,3
2021-10-27 16:14:31.781250+00:00,-26,97,1
2021-10-27 16:14:31.812500+00:00,-14,114,-14
2021-10-27 16:14:31.843750+00:00,-11,127,-17
2021-10-27 16:14:31.875000+00:00,-19,120,-10
2021-10-27 16:14:31.906250+00:00,-22,102,-9
2021-10-27 16:14:31.937500+00:00,-20,77,-3
2021-10-27 16:14:31.968750+00:00,-22,58,11
2021-10-27 16:14:32+00:00,-22,47,15
2021-10-27 16:14:32.031250+00:00,-20,32,18
2021-10-27 16:14:32.062500+00:00,-15,28,20
2021-10-27 16:14:32.093750+00:00,-10,27,23
2021-10-27 16:14:32.125000+00:00,-13,30,18
2021-10-27 16:14:32.156250+00:00,-16,42,14
2021-10-27 16:14:32.187500+00:00,-25,54,12
2021-10-27 16:14:32.218750+00:00,-28,60,12
2021-10-27 16:14:32.250000+00:00,-24,61,9
2021-10-27 16:14:32.281250+00:00,-20,66,8
2021-10-27 16:14:32.312500+00:00,-32,76,19
2021-10-27 16:14:32.343750+00:00,-40,60,35
2021-10-27 16:14:32.375000+00:00,-44,57,40
2021-10-27 16:14:32.406250+00:00,-47,50,40
2021-10-27 16:14:32.437500+00:00,-46,53,40
2021-10-27 16:14:32.468750+00:00,-36,53,43
2021-10-27 16:14:32.500000+00:00,-29,47,48
2021-10-27 16:14:32.531250+00:00,-26,33,38
2021-10-27 16:14:32.562500+00:00,-25,27,32
2021-10-27 16:14:32.593750+00:00,-22,17,28
2021-10-27 16:14:32.625000+00:00,-25,15,27
2021-10-27 16:14:32.656250+00:00,-22,15,28
2021-10-27 16:14:32.687500+00:00,-17,21,26
2021-10-27 16:14:32.718750+00:00,-21,32,22
2021-10-27 16:14:32.750000+00:00,-16,59,13
2021-10-27 16:14:32.781250+00:00,-17,63,12
2021-10-27 16:14:32.812500+00:00,-25,83,22
2021-10-27 16:14:32.843750+00:00,-38,86,28
2021-10-27 16:14:32.875000+00:00,-37,77,28
2021-10-27 16:14:32.906250+00:00,-32,61,36
2021-10-27 16:14:32.937500+00:00,-29,55,37
2021-10-27 16:14:32.968750+00:00,-33,52,37
2021-10-27 16:14:33+00:00,-13,44,33
2021-10-27 16:14:33.031250+00:00,-15,48,27
2021-10-27 16:14:33.062500+00:00,-20,62,45
2021-10-27 16:14:33.093750+00:00,-37,71,53
2021-10-27 16:14:33.125000+00:00,-36,62,48
2021-10-27 16:14:33.156250+00:00,-28,58,47
2021-10-27 16:14:33.187500+00:00,-17,45,43
2021-10-27 16:14:33.218750+00:00,-19,35,35
2021-10-27 16:14:33.250000+00:00,-18,31,38
2021-10-27 16:14:33.281250+00:00,-22,23,34
2021-10-27 16:14:33.312500+00:00,-24,22,31
2021-10-27 16:14:33.343750+00:00,-19,29,30
2021-10-27 16:14:33.375000+00:00,-18,33,27
2021-10-27 16:14:33.406250+00:00,-25,42,23
2021-10-27 16:14:33.437500+00:00,-26,64,26
2021-10-27 16:14:33.468750+00:00,-27,70,24
2021-10-27 16:14:33.500000+00:00,-33,84,29
2021-10-27 16:14:33.531250+00:00,-30,84,30
2021-10-27 16:14:33.562500+00:00,-38,86,23
2021-10-27 16:14:33.593750+00:00,-31,82,30
2021-10-27 16:14:33.625000+00:00,-26,65,39
2021-10-27 16:14:33.656250+00:00,-20,41,40
2021-10-27 16:14:33.687500+00:00,-17,34,39
2021-10-27 16:14:33.718750+00:00,-20,27,35
2021-10-27 16:14:33.750000+00:00,-22,27,30
2021-10-27 16:14:33.781250+00:00,-24,27,23
2021-10-27 16:14:33.812500+00:00,-25,33,24
2021-10-27 16:14:33.843750+00:00,-21,43,28
2021-10-27 16:14:33.875000+00:00,-28,59,27
2021-10-27 16:14:33.906250+00:00,-28,63,26
2021-10-27 16:14:33.937500+00:00,-22,62,33
2021-10-27 16:14:33.968750+00:00,-22,62,33
2021-10-27 16:14:34+00:00,-30,62,34
2021-10-27 16:14:34.031250+00:00,-31,62,30
2021-10-27 16:14:34.062500+00:00,-30,65,33
2021-10-27 16:14:34.093750+00:00,-15,68,48
2021-10-27 16:14:34.125000+00:00,-16,61,48
2021-10-27 16:14:34.156250+00:00,-15,36,33
2021-10-27 16:14:34.187500+00:00,-19,26,33
2021-10-27 16:14:34.218750+00:00,-19,16,34
2021-10-27 16:14:34.250000+00:00,-18,14,34
2021-10-27 16:14:34.281250+00:00,-13,12,31
2021-10-27 16:14:34.312500+00:00,-8,21,18
2021-10-27 16:14:34.343750+00:00,-9,33,17
2021-10-27 16:14:34.375000+00:00,-14,74,3
2021-10-27 16:14:34.406250+00:00,-14,94,1
2021-10-27 16:14:34.437500+00:00,-16,115,-4
2021-10-27 16:14:34.468750+00:00,-11,115,-9
2021-10-27 16:14:34.500000+00:00,-6,91,-3
2021-10-27 16:14:34.531250+00:00,-9,73,16
2021-10-27 16:14:34.562500+00:00,-7,68,14
2021-10-27 16:14:34.593750+00:00,-12,68,19
2021-10-27 16:14:34.625000+00:00,-18,79,32
2021-10-27 16:14:34.656250+00:00,-8,85,61
2021-10-27 16:14:34.687500+00:00,-16,77,62
2021-10-27 16:14:34.718750+00:00,-20,61,60
2021-10-27 16:14:34.750000+00:00,-35,42,46
2021-10-27 16:14:34.781250+00:00,-31,36,52
2021-10-27 16:14:34.812500+00:00,-10,24,69
2021-10-27 16:14:34.843750+00:00,-9,19,67
2021-10-27 16:14:34.875000+00:00,-2,4,18
2021-10-27 16:14:34.906250+00:00,-14,10,5
2021-10-27 16:14:34.937500+00:00,-6,20,29
2021-10-27 16:14:34.968750+00:00,-11,39,23
2021-10-27 16:14:35+00:00,-12,57,14
2021-10-27 16:14:35.031250+00:00,-7,77,6
2021-10-27 16:14:35.062500+00:00,-10,97,-1
2021-10-27 16:14:35.093750+00:00,-18,123,-14
2021-10-27 16:14:35.125000+00:00,-18,110,-16
2021-10-27 16:14:35.156250+00:00,-15,86,-7
2021-10-27 16:14:35.187500+00:00,-6,81,-2
2021-10-27 16:14:35.218750+00:00,3,76,3
2021-10-27 16:14:35.250000+00:00,5,88,-11
2021-10-27 16:14:35.281250+00:00,4,98,-5
2021-10-27 16:14:35.312500+00:00,-1,93,12
2021-10-27 16:14:35.343750+00:00,-8,101,14
2021-10-27 16:14:35.375000+00:00,-9,105,21
2021-10-27 16:14:35.406250+00:00,-4,81,18
2021-10-27 16:14:35.437500+00:00,3,63,18
2021-10-27 16:14:35.468750+00:00,7,44,23
2021-10-27 16:14:35.500000+00:00,5,42,23
2021-10-27 16:14:35.531250+00:00,-14,37,21
2021-10-27 16:14:35.562500+00:00,-22,37,18
2021-10-27 16:14:35.593750+00:00,-31,39,14
2021-10-27 16:14:35.625000+00:00,-29,43,12
2021-10-27 16:14:35.656250+00:00,-27,46,10
2021-10-27 16:14:35.687500+00:00,-23,50,10
2021-10-27 16:14:35.718750+00:00,-20,55,7
2021-10-27 16:14:35.750000+00:00,-16,92,-3
2021-10-27 16:14:35.781250+00:00,-19,115,-7
2021-10-27 16:14:35.812500+00:00,-18,115,-14
2021-10-27 16:14:35.843750+00:00,-13,120,-13
2021-10-27 16:14:35.875000+00:00,-7,111,-14
2021-10-27 16:14:35.906250+00:00,-10,103,-9
2021-10-27 16:14:35.937500+00:00,-16,99,-7
2021-10-27 16:14:35.968750+00:00,-21,81,-6
2021-10-27 16:14:36+00:00,-22,74,-5
2021-10-27 16:14:36.031250+00:00,-20,74,-6
2021-10-27 16:14:36.062500+00:00,-12,76,-6
2021-10-27 16:14:36.093750+00:00,-9,75,-6
2021-10-27 16:14:36.125000+00:00,1,78,0
2021-10-27 16:14:36.156250+00:00,3,79,4
2021-10-27 16:14:36.187500+00:00,8,75,10
2021-10-27 16:14:36.218750+00:00,12,65,13
2021-10-27 16:14:36.250000+00:00,3,61,21
2021-10-27 16:14:36.281250+00:00,-64,53,3
2021-10-27 16:14:36.312500+00:00,-93,44,17
2021-10-27 16:14:36.343750+00:00,-111,37,30
2021-10-27 16:14:36.375000+00:00,-100,28,25
2021-10-27 16:14:36.406250+00:00,-69,14,23
2021-10-27 16:14:36.437500+00:00,-62,19,32
2021-10-27 16:14:36.468750+00:00,-54,21,28
2021-10-27 16:14:36.500000+00:00,-35,13,20
2021-10-27 16:14:36.531250+00:00,-31,8,16
2021-10-27 16:14:36.562500+00:00,-56,8,1
2021-10-27 16:14:36.593750+00:00,-63,7,-1
2021-10-27 16:14:36.625000+00:00,-31,-5,16
2021-10-27 16:14:36.656250+00:00,-19,-7,24
2021-10-27 16:14:36.687500+00:00,-15,-14,22
2021-10-27 16:14:36.718750+00:00,-43,-15,0
