datatime,acc_x,acc_y,acc_z
2021-11-08 23:25:52-05:00,-13,-33,58
2021-11-08 23:25:52.031250-05:00,-14,-32,56
2021-11-08 23:25:52.062500-05:00,-14,-33,50
2021-11-08 23:25:52.093750-05:00,-14,-39,49
2021-11-08 23:25:52.125000-05:00,-12,-42,49
2021-11-08 23:25:52.156250-05:00,-10,-40,47
2021-11-08 23:25:52.187500-05:00,-9,-38,45
2021-11-08 23:25:52.218750-05:00,-8,-38,47
2021-11-08 23:25:52.250000-05:00,-7,-38,48
2021-11-08 23:25:52.281250-05:00,-9,-37,48
2021-11-08 23:25:52.312500-05:00,-11,-37,46
2021-11-08 23:25:52.343750-05:00,-9,-40,48
2021-11-08 23:25:52.375000-05:00,-8,-42,48
2021-11-08 23:25:52.406250-05:00,-9,-54,54
2021-11-08 23:25:52.437500-05:00,-9,-42,55
2021-11-08 23:25:52.468750-05:00,-11,-38,38
2021-11-08 23:25:52.500000-05:00,-9,-38,42
2021-11-08 23:25:52.531250-05:00,-9,-40,46
2021-11-08 23:25:52.562500-05:00,-10,-41,48
2021-11-08 23:25:52.593750-05:00,-11,-39,47
2021-11-08 23:25:52.625000-05:00,-12,-38,43
2021-11-08 23:25:52.656250-05:00,-12,-39,43
2021-11-08 23:25:52.687500-05:00,-12,-41,48
2021-11-08 23:25:52.718750-05:00,-13,-42,49
2021-11-08 23:25:52.750000-05:00,-14,-42,49
2021-11-08 23:25:52.781250-05:00,-15,-43,46
2021-11-08 23:25:52.812500-05:00,-14,-43,46
2021-11-08 23:25:52.843750-05:00,-11,-42,46
2021-11-08 23:25:52.875000-05:00,-11,-42,45
2021-11-08 23:25:52.906250-05:00,-12,-41,44
2021-11-08 23:25:52.937500-05:00,-13,-41,44
2021-11-08 23:25:52.968750-05:00,-13,-41,44
2021-11-08 23:25:53-05:00,-12,-42,45
2021-11-08 23:25:53.031250-05:00,-12,-42,45
2021-11-08 23:25:53.062500-05:00,-12,-43,44
2021-11-08 23:25:53.093750-05:00,-12,-44,45
2021-11-08 23:25:53.125000-05:00,-12,-43,42
2021-11-08 23:25:53.156250-05:00,-11,-41,43
2021-11-08 23:25:53.187500-05:00,-8,-41,46
2021-11-08 23:25:53.218750-05:00,-5,-41,50
2021-11-08 23:25:53.250000-05:00,-4,-41,51
2021-11-08 23:25:53.281250-05:00,-7,-40,47
2021-11-08 23:25:53.312500-05:00,-7,-41,46
2021-11-08 23:25:53.343750-05:00,-7,-41,46
2021-11-08 23:25:53.375000-05:00,-7,-41,48
2021-11-08 23:25:53.406250-05:00,-8,-41,47
2021-11-08 23:25:53.437500-05:00,-9,-42,46
2021-11-08 23:25:53.468750-05:00,-9,-41,45
2021-11-08 23:25:53.500000-05:00,-9,-39,46
2021-11-08 23:25:53.531250-05:00,-8,-39,47
2021-11-08 23:25:53.562500-05:00,-7,-40,48
2021-11-08 23:25:53.593750-05:00,-8,-41,48
2021-11-08 23:25:53.625000-05:00,-8,-42,48
2021-11-08 23:25:53.656250-05:00,-8,-43,49
2021-11-08 23:25:53.687500-05:00,-9,-42,48
2021-11-08 23:25:53.718750-05:00,-9,-41,46
2021-11-08 23:25:53.750000-05:00,-7,-40,47
2021-11-08 23:25:53.781250-05:00,-4,-39,48
2021-11-08 23:25:53.812500-05:00,-5,-37,48
2021-11-08 23:25:53.843750-05:00,-5,-38,48
2021-11-08 23:25:53.875000-05:00,-6,-38,47
2021-11-08 23:25:53.906250-05:00,-5,-39,47
2021-11-08 23:25:53.937500-05:00,-8,-39,46
2021-11-08 23:25:53.968750-05:00,-8,-39,46
2021-11-08 23:25:54-05:00,-7,-39,47
2021-11-08 23:25:54.031250-05:00,-7,-39,47
2021-11-08 23:25:54.062500-05:00,-8,-40,47
2021-11-08 23:25:54.093750-05:00,-6,-40,47
2021-11-08 23:25:54.125000-05:00,-8,-41,47
2021-11-08 23:25:54.156250-05:00,-9,-42,49
2021-11-08 23:25:54.187500-05:00,-9,-43,49
2021-11-08 23:25:54.218750-05:00,-10,-42,46
2021-11-08 23:25:54.250000-05:00,-9,-40,44
2021-11-08 23:25:54.281250-05:00,-10,-40,46
2021-11-08 23:25:54.312500-05:00,-11,-42,49
2021-11-08 23:25:54.343750-05:00,-11,-41,47
2021-11-08 23:25:54.375000-05:00,-10,-40,46
2021-11-08 23:25:54.406250-05:00,-9,-40,47
2021-11-08 23:25:54.437500-05:00,-9,-39,48
2021-11-08 23:25:54.468750-05:00,-9,-39,47
2021-11-08 23:25:54.500000-05:00,-9,-39,47
2021-11-08 23:25:54.531250-05:00,-9,-39,45
2021-11-08 23:25:54.562500-05:00,-9,-39,45
2021-11-08 23:25:54.593750-05:00,-8,-40,47
2021-11-08 23:25:54.625000-05:00,-8,-40,48
2021-11-08 23:25:54.656250-05:00,-9,-40,45
2021-11-08 23:25:54.687500-05:00,-8,-41,47
2021-11-08 23:25:54.718750-05:00,-8,-41,46
2021-11-08 23:25:54.750000-05:00,-7,-40,46
2021-11-08 23:25:54.781250-05:00,-8,-40,46
2021-11-08 23:25:54.812500-05:00,-8,-41,48
2021-11-08 23:25:54.843750-05:00,-9,-41,47
2021-11-08 23:25:54.875000-05:00,-8,-43,48
2021-11-08 23:25:54.906250-05:00,-9,-43,47
2021-11-08 23:25:54.937500-05:00,-10,-44,47
2021-11-08 23:25:54.968750-05:00,-8,-43,44
2021-11-08 23:25:55-05:00,-9,-43,44
2021-11-08 23:25:55.031250-05:00,-9,-43,43
2021-11-08 23:25:55.062500-05:00,-9,-44,44
2021-11-08 23:25:55.093750-05:00,-9,-45,46
2021-11-08 23:25:55.125000-05:00,-12,-46,43
2021-11-08 23:25:55.156250-05:00,-12,-44,42
2021-11-08 23:25:55.187500-05:00,-5,-44,38
2021-11-08 23:25:55.218750-05:00,-7,-43,36
2021-11-08 23:25:55.250000-05:00,-7,-45,37
2021-11-08 23:25:55.281250-05:00,-7,-45,37
2021-11-08 23:25:55.312500-05:00,-6,-47,40
2021-11-08 23:25:55.343750-05:00,-6,-50,39
2021-11-08 23:25:55.375000-05:00,-7,-52,39
2021-11-08 23:25:55.406250-05:00,-8,-52,40
2021-11-08 23:25:55.437500-05:00,-7,-52,40
2021-11-08 23:25:55.468750-05:00,-8,-52,39
2021-11-08 23:25:55.500000-05:00,-8,-52,39
2021-11-08 23:25:55.531250-05:00,-7,-50,38
2021-11-08 23:25:55.562500-05:00,-7,-50,38
2021-11-08 23:25:55.593750-05:00,-7,-49,38
2021-11-08 23:25:55.625000-05:00,-7,-50,38
2021-11-08 23:25:55.656250-05:00,-7,-50,38
2021-11-08 23:25:55.687500-05:00,-7,-50,38
2021-11-08 23:25:55.718750-05:00,-7,-50,38
2021-11-08 23:25:55.750000-05:00,-6,-51,36
2021-11-08 23:25:55.781250-05:00,-5,-50,36
2021-11-08 23:25:55.812500-05:00,-6,-51,36
2021-11-08 23:25:55.843750-05:00,-6,-51,33
2021-11-08 23:25:55.875000-05:00,-6,-52,32
2021-11-08 23:25:55.906250-05:00,-6,-52,30
2021-11-08 23:25:55.937500-05:00,-4,-51,32
2021-11-08 23:25:55.968750-05:00,-4,-50,32
2021-11-08 23:25:56-05:00,-5,-52,38
2021-11-08 23:25:56.031250-05:00,-4,-51,39
2021-11-08 23:25:56.062500-05:00,-1,-54,30
2021-11-08 23:25:56.093750-05:00,-1,-53,23
2021-11-08 23:25:56.125000-05:00,0,-49,7
2021-11-08 23:25:56.156250-05:00,-6,-51,3
2021-11-08 23:25:56.187500-05:00,-16,-61,-3
2021-11-08 23:25:56.218750-05:00,-15,-62,0
2021-11-08 23:25:56.250000-05:00,-15,-76,0
2021-11-08 23:25:56.281250-05:00,-14,-73,11
2021-11-08 23:25:56.312500-05:00,-14,-72,15
2021-11-08 23:25:56.343750-05:00,-14,-69,16
2021-11-08 23:25:56.375000-05:00,-14,-71,15
2021-11-08 23:25:56.406250-05:00,-16,-78,11
2021-11-08 23:25:56.437500-05:00,-17,-79,9
2021-11-08 23:25:56.468750-05:00,-15,-77,9
2021-11-08 23:25:56.500000-05:00,-9,-55,10
2021-11-08 23:25:56.531250-05:00,-8,-54,9
2021-11-08 23:25:56.562500-05:00,-8,-62,13
2021-11-08 23:25:56.593750-05:00,-9,-64,8
2021-11-08 23:25:56.625000-05:00,-15,-65,5
2021-11-08 23:25:56.656250-05:00,-16,-58,5
2021-11-08 23:25:56.687500-05:00,-17,-55,9
2021-11-08 23:25:56.718750-05:00,-19,-53,15
2021-11-08 23:25:56.750000-05:00,-19,-54,15
2021-11-08 23:25:56.781250-05:00,-23,-56,14
2021-11-08 23:25:56.812500-05:00,-25,-54,17
2021-11-08 23:25:56.843750-05:00,-24,-51,18
2021-11-08 23:25:56.875000-05:00,-23,-41,20
2021-11-08 23:25:56.906250-05:00,-21,-36,19
2021-11-08 23:25:56.937500-05:00,-17,-21,14
2021-11-08 23:25:56.968750-05:00,-16,-14,12
2021-11-08 23:25:57-05:00,-7,-4,15
2021-11-08 23:25:57.031250-05:00,-9,-11,33
2021-11-08 23:25:57.062500-05:00,-36,-27,39
2021-11-08 23:25:57.093750-05:00,-75,-101,47
2021-11-08 23:25:57.125000-05:00,-87,-128,45
2021-11-08 23:25:57.156250-05:00,-75,-128,44
2021-11-08 23:25:57.187500-05:00,-62,-127,37
2021-11-08 23:25:57.218750-05:00,-44,-81,23
2021-11-08 23:25:57.250000-05:00,-36,-51,16
2021-11-08 23:25:57.281250-05:00,-30,-43,14
2021-11-08 23:25:57.312500-05:00,-18,-31,8
2021-11-08 23:25:57.343750-05:00,-12,-24,8
2021-11-08 23:25:57.375000-05:00,-7,-19,10
2021-11-08 23:25:57.406250-05:00,-5,-17,8
2021-11-08 23:25:57.437500-05:00,-7,-8,6
2021-11-08 23:25:57.468750-05:00,-12,-7,8
2021-11-08 23:25:57.500000-05:00,-13,-5,10
2021-11-08 23:25:57.531250-05:00,-22,-8,16
2021-11-08 23:25:57.562500-05:00,-27,-8,19
2021-11-08 23:25:57.593750-05:00,-58,-43,40
2021-11-08 23:25:57.625000-05:00,-68,-50,37
2021-11-08 23:25:57.656250-05:00,-83,-88,52
2021-11-08 23:25:57.687500-05:00,-74,-71,47
2021-11-08 23:25:57.718750-05:00,-71,-65,45
2021-11-08 23:25:57.750000-05:00,-62,-55,45
2021-11-08 23:25:57.781250-05:00,-57,-48,42
2021-11-08 23:25:57.812500-05:00,-41,-33,30
2021-11-08 23:25:57.843750-05:00,-34,-26,27
2021-11-08 23:25:57.875000-05:00,-30,-19,24
2021-11-08 23:25:57.906250-05:00,-28,-17,19
2021-11-08 23:25:57.937500-05:00,-26,-18,18
2021-11-08 23:25:57.968750-05:00,-29,-25,20
2021-11-08 23:25:58-05:00,-30,-27,21
2021-11-08 23:25:58.031250-05:00,-27,-26,21
2021-11-08 23:25:58.062500-05:00,-26,-23,23
2021-11-08 23:25:58.093750-05:00,-25,-19,21
2021-11-08 23:25:58.125000-05:00,-24,-19,20
2021-11-08 23:25:58.156250-05:00,-30,-18,21
2021-11-08 23:25:58.187500-05:00,-69,-37,37
2021-11-08 23:25:58.218750-05:00,-86,-55,53
2021-11-08 23:25:58.250000-05:00,-102,-110,61
2021-11-08 23:25:58.281250-05:00,-95,-101,56
2021-11-08 23:25:58.312500-05:00,-71,-75,44
2021-11-08 23:25:58.343750-05:00,-44,-43,28
2021-11-08 23:25:58.375000-05:00,-35,-31,24
2021-11-08 23:25:58.406250-05:00,-22,-15,19
2021-11-08 23:25:58.437500-05:00,-19,-10,15
2021-11-08 23:25:58.468750-05:00,-11,-4,7
2021-11-08 23:25:58.500000-05:00,-5,-3,5
2021-11-08 23:25:58.531250-05:00,3,-1,3
2021-11-08 23:25:58.562500-05:00,0,-8,5
2021-11-08 23:25:58.593750-05:00,-1,-15,8
2021-11-08 23:25:58.625000-05:00,-5,-31,9
2021-11-08 23:25:58.656250-05:00,-4,-43,11
2021-11-08 23:25:58.687500-05:00,-6,-87,7
2021-11-08 23:25:58.718750-05:00,-10,-128,11
2021-11-08 23:25:58.750000-05:00,17,-128,26
2021-11-08 23:25:58.781250-05:00,-87,-128,-16
2021-11-08 23:25:58.812500-05:00,-49,-100,-3
2021-11-08 23:25:58.843750-05:00,-46,-66,-17
2021-11-08 23:25:58.875000-05:00,-36,-51,-19
2021-11-08 23:25:58.906250-05:00,-32,-33,-19
2021-11-08 23:25:58.937500-05:00,-28,-30,-17
2021-11-08 23:25:58.968750-05:00,-15,-24,-6
2021-11-08 23:25:59-05:00,-9,-17,3
2021-11-08 23:25:59.031250-05:00,-12,-13,3
2021-11-08 23:25:59.062500-05:00,-18,-11,1
2021-11-08 23:25:59.093750-05:00,-21,-13,1
2021-11-08 23:25:59.125000-05:00,-19,-25,3
2021-11-08 23:25:59.156250-05:00,-25,-40,12
2021-11-08 23:25:59.187500-05:00,-29,-128,29
2021-11-08 23:25:59.218750-05:00,-37,-128,-32
2021-11-08 23:25:59.250000-05:00,-37,-128,-46
2021-11-08 23:25:59.281250-05:00,7,-121,8
2021-11-08 23:25:59.312500-05:00,21,-98,27
2021-11-08 23:25:59.343750-05:00,3,-69,0
2021-11-08 23:25:59.375000-05:00,-13,-59,-8
2021-11-08 23:25:59.406250-05:00,-33,-56,-6
2021-11-08 23:25:59.437500-05:00,-22,-55,4
2021-11-08 23:25:59.468750-05:00,-13,-48,9
2021-11-08 23:25:59.500000-05:00,-3,-37,6
2021-11-08 23:25:59.531250-05:00,1,-29,3
2021-11-08 23:25:59.562500-05:00,4,-23,1
2021-11-08 23:25:59.593750-05:00,4,-21,0
2021-11-08 23:25:59.625000-05:00,0,-16,-3
2021-11-08 23:25:59.656250-05:00,-9,-18,0
2021-11-08 23:25:59.687500-05:00,-10,-23,2
2021-11-08 23:25:59.718750-05:00,-1,-37,3
2021-11-08 23:25:59.750000-05:00,-10,-58,4
2021-11-08 23:25:59.781250-05:00,-22,-128,12
2021-11-08 23:25:59.812500-05:00,-21,-128,16
2021-11-08 23:25:59.843750-05:00,-4,-128,4
2021-11-08 23:25:59.875000-05:00,-19,-125,9
2021-11-08 23:25:59.906250-05:00,-33,-96,-7
2021-11-08 23:25:59.937500-05:00,-28,-52,-8
2021-11-08 23:25:59.968750-05:00,-13,-48,0
2021-11-08 23:26:00-05:00,-3,-47,6
2021-11-08 23:26:00.031250-05:00,-1,-39,9
2021-11-08 23:26:00.062500-05:00,-6,-30,12
2021-11-08 23:26:00.093750-05:00,-14,-32,17
2021-11-08 23:26:00.125000-05:00,-20,-32,18
2021-11-08 23:26:00.156250-05:00,-29,-30,15
2021-11-08 23:26:00.187500-05:00,-30,-32,13
2021-11-08 23:26:00.218750-05:00,-25,-41,11
2021-11-08 23:26:00.250000-05:00,-23,-50,9
2021-11-08 23:26:00.281250-05:00,-20,-84,8
2021-11-08 23:26:00.312500-05:00,-13,-128,0
2021-11-08 23:26:00.343750-05:00,-18,-128,-3
2021-11-08 23:26:00.375000-05:00,-6,-128,-9
2021-11-08 23:26:00.406250-05:00,-2,-123,-7
2021-11-08 23:26:00.437500-05:00,3,-103,0
2021-11-08 23:26:00.468750-05:00,0,-89,0
2021-11-08 23:26:00.500000-05:00,-11,-72,-9
2021-11-08 23:26:00.531250-05:00,-21,-59,-12
2021-11-08 23:26:00.562500-05:00,-21,-54,-9
2021-11-08 23:26:00.593750-05:00,-12,-48,-3
2021-11-08 23:26:00.625000-05:00,-7,-45,-4
2021-11-08 23:26:00.656250-05:00,0,-33,-5
2021-11-08 23:26:00.687500-05:00,4,-23,-4
2021-11-08 23:26:00.718750-05:00,2,-20,-4
2021-11-08 23:26:00.750000-05:00,-2,-20,-5
2021-11-08 23:26:00.781250-05:00,-4,-17,-5
2021-11-08 23:26:00.812500-05:00,-5,-17,-6
2021-11-08 23:26:00.843750-05:00,-6,-24,-6
2021-11-08 23:26:00.875000-05:00,-17,-48,0
2021-11-08 23:26:00.906250-05:00,-38,-97,11
2021-11-08 23:26:00.937500-05:00,-23,-128,21
2021-11-08 23:26:00.968750-05:00,-31,-128,8
2021-11-08 23:26:01-05:00,-39,-128,2
2021-11-08 23:26:01.031250-05:00,-30,-114,4
2021-11-08 23:26:01.062500-05:00,-27,-93,2
2021-11-08 23:26:01.093750-05:00,-14,-57,0
2021-11-08 23:26:01.125000-05:00,-7,-54,5
2021-11-08 23:26:01.156250-05:00,4,-45,17
2021-11-08 23:26:01.187500-05:00,-3,-32,15
2021-11-08 23:26:01.218750-05:00,-8,-30,13
2021-11-08 23:26:01.250000-05:00,-15,-32,22
2021-11-08 23:26:01.281250-05:00,-19,-31,25
2021-11-08 23:26:01.312500-05:00,-29,-30,24
2021-11-08 23:26:01.343750-05:00,-31,-32,21
2021-11-08 23:26:01.375000-05:00,-23,-45,12
2021-11-08 23:26:01.406250-05:00,-17,-95,9
2021-11-08 23:26:01.437500-05:00,-14,-128,4
2021-11-08 23:26:01.468750-05:00,-15,-128,-11
2021-11-08 23:26:01.500000-05:00,-7,-128,-21
2021-11-08 23:26:01.531250-05:00,2,-119,-6
2021-11-08 23:26:01.562500-05:00,1,-104,4
2021-11-08 23:26:01.593750-05:00,-9,-90,-2
2021-11-08 23:26:01.625000-05:00,-21,-72,-16
2021-11-08 23:26:01.656250-05:00,-26,-68,-19
2021-11-08 23:26:01.687500-05:00,-22,-56,-16
2021-11-08 23:26:01.718750-05:00,-15,-50,-12
2021-11-08 23:26:01.750000-05:00,-5,-40,-7
2021-11-08 23:26:01.781250-05:00,7,-27,-5
2021-11-08 23:26:01.812500-05:00,9,-23,-5
2021-11-08 23:26:01.843750-05:00,6,-16,-7
2021-11-08 23:26:01.875000-05:00,1,-13,-7
2021-11-08 23:26:01.906250-05:00,-4,-12,-5
2021-11-08 23:26:01.937500-05:00,-6,-16,-3
2021-11-08 23:26:01.968750-05:00,-5,-32,-3
2021-11-08 23:26:02-05:00,-18,-80,4
2021-11-08 23:26:02.031250-05:00,-18,-107,12
2021-11-08 23:26:02.062500-05:00,-14,-128,9
2021-11-08 23:26:02.093750-05:00,-9,-128,6
2021-11-08 23:26:02.125000-05:00,-23,-128,-3
2021-11-08 23:26:02.156250-05:00,-23,-114,-4
2021-11-08 23:26:02.187500-05:00,-28,-67,1
2021-11-08 23:26:02.218750-05:00,0,-52,4
2021-11-08 23:26:02.250000-05:00,-2,-49,0
2021-11-08 23:26:02.281250-05:00,-1,-39,2
2021-11-08 23:26:02.312500-05:00,-1,-39,7
2021-11-08 23:26:02.343750-05:00,-9,-46,27
2021-11-08 23:26:02.375000-05:00,-15,-48,34
2021-11-08 23:26:02.406250-05:00,-26,-39,29
2021-11-08 23:26:02.437500-05:00,-17,-33,14
2021-11-08 23:26:02.468750-05:00,-16,-43,9
2021-11-08 23:26:02.500000-05:00,-16,-90,14
2021-11-08 23:26:02.531250-05:00,-19,-128,11
2021-11-08 23:26:02.562500-05:00,-25,-125,-24
2021-11-08 23:26:02.593750-05:00,-25,-105,-25
2021-11-08 23:26:02.625000-05:00,8,-113,9
2021-11-08 23:26:02.656250-05:00,6,-89,12
2021-11-08 23:26:02.687500-05:00,-3,-76,4
2021-11-08 23:26:02.718750-05:00,-14,-72,-13
2021-11-08 23:26:02.750000-05:00,-23,-74,-18
2021-11-08 23:26:02.781250-05:00,-31,-74,-16
2021-11-08 23:26:02.812500-05:00,-23,-66,-11
2021-11-08 23:26:02.843750-05:00,-5,-64,-1
2021-11-08 23:26:02.875000-05:00,14,-57,5
2021-11-08 23:26:02.906250-05:00,19,-49,4
2021-11-08 23:26:02.937500-05:00,24,-38,1
2021-11-08 23:26:02.968750-05:00,16,-40,-2
2021-11-08 23:26:03-05:00,-10,-64,-3
2021-11-08 23:26:03.031250-05:00,-24,-72,7
2021-11-08 23:26:03.062500-05:00,-30,-79,21
2021-11-08 23:26:03.093750-05:00,-16,-81,10
2021-11-08 23:26:03.125000-05:00,-32,-87,-7
2021-11-08 23:26:03.156250-05:00,-64,-73,-25
2021-11-08 23:26:03.187500-05:00,-62,-61,-23
2021-11-08 23:26:03.218750-05:00,-53,-44,-15
2021-11-08 23:26:03.250000-05:00,-47,-36,-13
2021-11-08 23:26:03.281250-05:00,-52,-30,-20
2021-11-08 23:26:03.312500-05:00,-50,-26,-24
2021-11-08 23:26:03.343750-05:00,-53,-19,-20
2021-11-08 23:26:03.375000-05:00,-46,-37,-17
2021-11-08 23:26:03.406250-05:00,-51,-63,-21
2021-11-08 23:26:03.437500-05:00,-60,-128,-40
2021-11-08 23:26:03.468750-05:00,-69,-128,-32
2021-11-08 23:26:03.500000-05:00,-46,-127,-14
2021-11-08 23:26:03.531250-05:00,-35,-121,-4
2021-11-08 23:26:03.562500-05:00,-34,-116,-9
2021-11-08 23:26:03.593750-05:00,-33,-84,-14
2021-11-08 23:26:03.625000-05:00,-31,-64,-10
2021-11-08 23:26:03.656250-05:00,-25,-28,5
2021-11-08 23:26:03.687500-05:00,-11,-13,9
2021-11-08 23:26:03.718750-05:00,19,6,6
2021-11-08 23:26:03.750000-05:00,3,3,1
2021-11-08 23:26:03.781250-05:00,-1,-2,4
2021-11-08 23:26:03.812500-05:00,-1,-6,10
2021-11-08 23:26:03.843750-05:00,-4,-10,10
2021-11-08 23:26:03.875000-05:00,-3,-14,15
2021-11-08 23:26:03.906250-05:00,14,-13,23
2021-11-08 23:26:03.937500-05:00,-16,-38,16
2021-11-08 23:26:03.968750-05:00,-44,-128,55
2021-11-08 23:26:04-05:00,-62,-128,60
2021-11-08 23:26:04.031250-05:00,-33,-128,39
2021-11-08 23:26:04.062500-05:00,-35,-128,25
2021-11-08 23:26:04.093750-05:00,-40,-108,12
2021-11-08 23:26:04.125000-05:00,-35,-95,5
2021-11-08 23:26:04.156250-05:00,-24,-66,-8
2021-11-08 23:26:04.187500-05:00,-24,-43,-11
2021-11-08 23:26:04.218750-05:00,-19,-37,-16
2021-11-08 23:26:04.250000-05:00,-15,-40,-28
2021-11-08 23:26:04.281250-05:00,-24,-46,-27
2021-11-08 23:26:04.312500-05:00,-33,-52,-18
2021-11-08 23:26:04.343750-05:00,-30,-74,-18
2021-11-08 23:26:04.375000-05:00,-27,-80,-19
2021-11-08 23:26:04.406250-05:00,-34,-73,-22
2021-11-08 23:26:04.437500-05:00,-36,-67,-21
2021-11-08 23:26:04.468750-05:00,-33,-62,-17
2021-11-08 23:26:04.500000-05:00,-28,-59,-11
2021-11-08 23:26:04.531250-05:00,-24,-58,-3
2021-11-08 23:26:04.562500-05:00,-24,-61,4
2021-11-08 23:26:04.593750-05:00,-22,-64,5
2021-11-08 23:26:04.625000-05:00,-26,-58,5
2021-11-08 23:26:04.656250-05:00,-25,-54,9
2021-11-08 23:26:04.687500-05:00,-22,-52,10
2021-11-08 23:26:04.718750-05:00,-20,-58,10
2021-11-08 23:26:04.750000-05:00,-29,-72,6
2021-11-08 23:26:04.781250-05:00,-29,-76,6
2021-11-08 23:26:04.812500-05:00,25,-69,35
2021-11-08 23:26:04.843750-05:00,1,-60,15
2021-11-08 23:26:04.875000-05:00,-3,-73,18
2021-11-08 23:26:04.906250-05:00,-7,-87,15
2021-11-08 23:26:04.937500-05:00,-9,-80,6
2021-11-08 23:26:04.968750-05:00,-9,-70,-3
2021-11-08 23:26:05-05:00,-10,-65,-4
2021-11-08 23:26:05.031250-05:00,-10,-63,-2
2021-11-08 23:26:05.062500-05:00,-11,-62,-2
2021-11-08 23:26:05.093750-05:00,-14,-60,-2
2021-11-08 23:26:05.125000-05:00,-17,-57,-2
2021-11-08 23:26:05.156250-05:00,-17,-55,-2
2021-11-08 23:26:05.187500-05:00,-16,-51,-5
2021-11-08 23:26:05.218750-05:00,-19,-52,-6
2021-11-08 23:26:05.250000-05:00,-20,-53,-5
2021-11-08 23:26:05.281250-05:00,-18,-56,-3
2021-11-08 23:26:05.312500-05:00,-17,-56,-3
2021-11-08 23:26:05.343750-05:00,-17,-58,-1
2021-11-08 23:26:05.375000-05:00,-17,-60,-1
2021-11-08 23:26:05.406250-05:00,-17,-62,-1
2021-11-08 23:26:05.437500-05:00,-18,-64,0
2021-11-08 23:26:05.468750-05:00,-18,-64,1
2021-11-08 23:26:05.500000-05:00,-19,-65,2
2021-11-08 23:26:05.531250-05:00,-19,-65,2
2021-11-08 23:26:05.562500-05:00,-18,-65,2
2021-11-08 23:26:05.593750-05:00,-18,-65,3
2021-11-08 23:26:05.625000-05:00,-18,-65,3
2021-11-08 23:26:05.656250-05:00,-18,-65,4
2021-11-08 23:26:05.687500-05:00,-18,-65,4
2021-11-08 23:26:05.718750-05:00,-18,-66,6
2021-11-08 23:26:05.750000-05:00,-18,-67,7
2021-11-08 23:26:05.781250-05:00,-18,-67,6
2021-11-08 23:26:05.812500-05:00,-18,-69,6
2021-11-08 23:26:05.843750-05:00,-17,-73,5
2021-11-08 23:26:05.875000-05:00,-17,-78,4
2021-11-08 23:26:05.906250-05:00,-18,-80,3
2021-11-08 23:26:05.937500-05:00,-19,-74,3
2021-11-08 23:26:05.968750-05:00,-18,-71,3
2021-11-08 23:26:06-05:00,-17,-67,1
2021-11-08 23:26:06.031250-05:00,-17,-64,1
2021-11-08 23:26:06.062500-05:00,-17,-55,3
2021-11-08 23:26:06.093750-05:00,-13,-50,4
2021-11-08 23:26:06.125000-05:00,-10,-48,4
2021-11-08 23:26:06.156250-05:00,-7,-45,3
2021-11-08 23:26:06.187500-05:00,-8,-43,4
2021-11-08 23:26:06.218750-05:00,-14,-41,5
2021-11-08 23:26:06.250000-05:00,-17,-40,7
2021-11-08 23:26:06.281250-05:00,-20,-40,9
2021-11-08 23:26:06.312500-05:00,-17,-43,9
2021-11-08 23:26:06.343750-05:00,-14,-46,9
2021-11-08 23:26:06.375000-05:00,-5,-53,8
2021-11-08 23:26:06.406250-05:00,-2,-61,8
2021-11-08 23:26:06.437500-05:00,6,-73,2
2021-11-08 23:26:06.468750-05:00,5,-76,-2
2021-11-08 23:26:06.500000-05:00,-9,-77,0
2021-11-08 23:26:06.531250-05:00,-25,-66,7
2021-11-08 23:26:06.562500-05:00,-30,-60,8
2021-11-08 23:26:06.593750-05:00,-31,-62,5
2021-11-08 23:26:06.625000-05:00,-26,-63,6
2021-11-08 23:26:06.656250-05:00,-19,-63,5
2021-11-08 23:26:06.687500-05:00,-15,-62,5
2021-11-08 23:26:06.718750-05:00,-7,-65,7
2021-11-08 23:26:06.750000-05:00,-6,-67,9
2021-11-08 23:26:06.781250-05:00,-9,-68,9
2021-11-08 23:26:06.812500-05:00,-13,-69,7
2021-11-08 23:26:06.843750-05:00,-15,-70,5
2021-11-08 23:26:06.875000-05:00,-16,-69,4
2021-11-08 23:26:06.906250-05:00,-15,-67,2
2021-11-08 23:26:06.937500-05:00,-16,-64,-1
2021-11-08 23:26:06.968750-05:00,-17,-64,-2
2021-11-08 23:26:07-05:00,-18,-64,-3
2021-11-08 23:26:07.031250-05:00,-19,-63,-2
2021-11-08 23:26:07.062500-05:00,-19,-63,-2
2021-11-08 23:26:07.093750-05:00,-18,-59,0
2021-11-08 23:26:07.125000-05:00,-18,-57,2
2021-11-08 23:26:07.156250-05:00,-17,-58,2
2021-11-08 23:26:07.187500-05:00,-15,-61,6
2021-11-08 23:26:07.218750-05:00,-13,-61,7
2021-11-08 23:26:07.250000-05:00,-8,-60,6
2021-11-08 23:26:07.281250-05:00,-4,-59,4
2021-11-08 23:26:07.312500-05:00,-3,-60,2
2021-11-08 23:26:07.343750-05:00,-8,-60,1
2021-11-08 23:26:07.375000-05:00,-15,-60,1
2021-11-08 23:26:07.406250-05:00,-23,-60,1
2021-11-08 23:26:07.437500-05:00,-25,-60,1
2021-11-08 23:26:07.468750-05:00,-21,-61,0
2021-11-08 23:26:07.500000-05:00,-18,-62,1
2021-11-08 23:26:07.531250-05:00,-14,-63,2
2021-11-08 23:26:07.562500-05:00,-12,-64,3
2021-11-08 23:26:07.593750-05:00,-11,-63,3
2021-11-08 23:26:07.625000-05:00,-14,-63,2
2021-11-08 23:26:07.656250-05:00,-15,-63,2
2021-11-08 23:26:07.687500-05:00,-16,-63,1
2021-11-08 23:26:07.718750-05:00,-16,-63,2
2021-11-08 23:26:07.750000-05:00,-15,-61,2
2021-11-08 23:26:07.781250-05:00,-14,-61,2
2021-11-08 23:26:07.812500-05:00,-15,-63,3
2021-11-08 23:26:07.843750-05:00,-17,-67,12
2021-11-08 23:26:07.875000-05:00,-21,-71,20
2021-11-08 23:26:07.906250-05:00,-35,-77,37
2021-11-08 23:26:07.937500-05:00,-46,-82,39
2021-11-08 23:26:07.968750-05:00,-84,-81,20
2021-11-08 23:26:08-05:00,-122,-78,-4
2021-11-08 23:26:08.031250-05:00,-128,-76,-11
2021-11-08 23:26:08.062500-05:00,-115,-75,-16
2021-11-08 23:26:08.093750-05:00,-106,-69,-19
2021-11-08 23:26:08.125000-05:00,-97,-58,-42
2021-11-08 23:26:08.156250-05:00,-84,-60,-46
2021-11-08 23:26:08.187500-05:00,-62,-51,-50
2021-11-08 23:26:08.218750-05:00,-55,-45,-46
2021-11-08 23:26:08.250000-05:00,-45,-32,-41
2021-11-08 23:26:08.281250-05:00,-33,-18,-28
2021-11-08 23:26:08.312500-05:00,-19,-14,-20
2021-11-08 23:26:08.343750-05:00,-5,-1,-5
2021-11-08 23:26:08.375000-05:00,-6,3,1
2021-11-08 23:26:08.406250-05:00,0,14,8
2021-11-08 23:26:08.437500-05:00,1,19,13
2021-11-08 23:26:08.468750-05:00,15,25,31
2021-11-08 23:26:08.500000-05:00,20,31,35
2021-11-08 23:26:08.531250-05:00,23,33,35
2021-11-08 23:26:08.562500-05:00,52,27,50
2021-11-08 23:26:08.593750-05:00,62,21,62
2021-11-08 23:26:08.625000-05:00,34,40,35
2021-11-08 23:26:08.656250-05:00,18,41,23
2021-11-08 23:26:08.687500-05:00,20,31,18
2021-11-08 23:26:08.718750-05:00,26,27,16
2021-11-08 23:26:08.750000-05:00,16,29,13
2021-11-08 23:26:08.781250-05:00,9,25,14
2021-11-08 23:26:08.812500-05:00,10,21,11
2021-11-08 23:26:08.843750-05:00,15,7,5
2021-11-08 23:26:08.875000-05:00,7,3,1
2021-11-08 23:26:08.906250-05:00,-11,-1,-1
2021-11-08 23:26:08.937500-05:00,-29,-11,-11
2021-11-08 23:26:08.968750-05:00,-42,-27,-24
2021-11-08 23:26:09-05:00,-89,-79,-47
2021-11-08 23:26:09.031250-05:00,-114,-89,-93
2021-11-08 23:26:09.062500-05:00,-104,-79,-105
2021-11-08 23:26:09.093750-05:00,-95,-68,-54
2021-11-08 23:26:09.125000-05:00,-83,-62,-39
2021-11-08 23:26:09.156250-05:00,-74,-49,-39
2021-11-08 23:26:09.187500-05:00,-68,-44,-38
2021-11-08 23:26:09.218750-05:00,-55,-42,-28
2021-11-08 23:26:09.250000-05:00,-46,-44,-21
2021-11-08 23:26:09.281250-05:00,-44,-43,-18
2021-11-08 23:26:09.312500-05:00,-33,-49,-14
2021-11-08 23:26:09.343750-05:00,-37,-53,-14
2021-11-08 23:26:09.375000-05:00,-41,-62,-16
2021-11-08 23:26:09.406250-05:00,-45,-65,-19
2021-11-08 23:26:09.437500-05:00,-42,-67,-21
2021-11-08 23:26:09.468750-05:00,-33,-66,-19
2021-11-08 23:26:09.500000-05:00,-25,-69,-3
2021-11-08 23:26:09.531250-05:00,-24,-65,-4
2021-11-08 23:26:09.562500-05:00,-24,-66,-1
2021-11-08 23:26:09.593750-05:00,-29,-63,-2
2021-11-08 23:26:09.625000-05:00,-28,-63,-4
2021-11-08 23:26:09.656250-05:00,-29,-58,-7
2021-11-08 23:26:09.687500-05:00,-30,-58,-8
2021-11-08 23:26:09.718750-05:00,-26,-58,-7
2021-11-08 23:26:09.750000-05:00,-25,-58,-7
2021-11-08 23:26:09.781250-05:00,-24,-59,-6
2021-11-08 23:26:09.812500-05:00,-18,-61,-2
2021-11-08 23:26:09.843750-05:00,-16,-62,0
2021-11-08 23:26:09.875000-05:00,-15,-64,1
2021-11-08 23:26:09.906250-05:00,-17,-65,0
2021-11-08 23:26:09.937500-05:00,-17,-62,-1
2021-11-08 23:26:09.968750-05:00,-18,-61,-3
2021-11-08 23:26:10-05:00,-19,-61,-4
2021-11-08 23:26:10.031250-05:00,-20,-59,-3
2021-11-08 23:26:10.062500-05:00,-19,-59,-3
2021-11-08 23:26:10.093750-05:00,-19,-57,-3
2021-11-08 23:26:10.125000-05:00,-19,-57,-3
2021-11-08 23:26:10.156250-05:00,-19,-58,-3
2021-11-08 23:26:10.187500-05:00,-20,-57,-3
2021-11-08 23:26:10.218750-05:00,-20,-56,-3
2021-11-08 23:26:10.250000-05:00,-20,-56,-4
2021-11-08 23:26:10.281250-05:00,-20,-55,-4
2021-11-08 23:26:10.312500-05:00,-22,-54,-4
2021-11-08 23:26:10.343750-05:00,-23,-57,-4
2021-11-08 23:26:10.375000-05:00,-26,-67,-4
2021-11-08 23:26:10.406250-05:00,-26,-70,-4
2021-11-08 23:26:10.437500-05:00,-25,-70,-4
2021-11-08 23:26:10.468750-05:00,-20,-68,-3
2021-11-08 23:26:10.500000-05:00,-18,-66,-3
2021-11-08 23:26:10.531250-05:00,-14,-63,-3
2021-11-08 23:26:10.562500-05:00,-16,-64,-4
2021-11-08 23:26:10.593750-05:00,-20,-64,-5
2021-11-08 23:26:10.625000-05:00,-22,-63,-7
2021-11-08 23:26:10.656250-05:00,-22,-61,-8
2021-11-08 23:26:10.687500-05:00,-21,-58,-7
2021-11-08 23:26:10.718750-05:00,-19,-58,-8
2021-11-08 23:26:10.750000-05:00,-17,-59,-9
2021-11-08 23:26:10.781250-05:00,-16,-62,-10
2021-11-08 23:26:10.812500-05:00,-16,-57,-9
2021-11-08 23:26:10.843750-05:00,-18,-46,-10
2021-11-08 23:26:10.875000-05:00,-23,-44,-11
2021-11-08 23:26:10.906250-05:00,-27,-55,-6
2021-11-08 23:26:10.937500-05:00,-26,-61,2
2021-11-08 23:26:10.968750-05:00,-19,-71,10
2021-11-08 23:26:11-05:00,-8,-67,13
2021-11-08 23:26:11.031250-05:00,1,-70,12
2021-11-08 23:26:11.062500-05:00,-6,-84,41
2021-11-08 23:26:11.093750-05:00,-11,-81,69
2021-11-08 23:26:11.125000-05:00,-19,-55,37
2021-11-08 23:26:11.156250-05:00,-19,-48,20
2021-11-08 23:26:11.187500-05:00,-21,-48,5
2021-11-08 23:26:11.218750-05:00,-27,-51,2
2021-11-08 23:26:11.250000-05:00,-32,-53,-2
2021-11-08 23:26:11.281250-05:00,-30,-57,-5
2021-11-08 23:26:11.312500-05:00,-27,-58,-3
2021-11-08 23:26:11.343750-05:00,-18,-63,-1
2021-11-08 23:26:11.375000-05:00,-16,-64,0
2021-11-08 23:26:11.406250-05:00,-15,-63,-1
2021-11-08 23:26:11.437500-05:00,-14,-63,-2
2021-11-08 23:26:11.468750-05:00,-20,-73,3
2021-11-08 23:26:11.500000-05:00,-21,-52,2
2021-11-08 23:26:11.531250-05:00,-21,-50,1
2021-11-08 23:26:11.562500-05:00,-19,-58,0
2021-11-08 23:26:11.593750-05:00,-20,-63,0
2021-11-08 23:26:11.625000-05:00,-21,-67,1
2021-11-08 23:26:11.656250-05:00,-20,-64,2
2021-11-08 23:26:11.687500-05:00,-19,-61,2
2021-11-08 23:26:11.718750-05:00,-21,-61,1
2021-11-08 23:26:11.750000-05:00,-20,-61,1
2021-11-08 23:26:11.781250-05:00,-18,-63,2
2021-11-08 23:26:11.812500-05:00,-16,-63,2
2021-11-08 23:26:11.843750-05:00,-15,-63,2
2021-11-08 23:26:11.875000-05:00,-15,-63,2
2021-11-08 23:26:11.906250-05:00,-15,-60,2
2021-11-08 23:26:11.937500-05:00,-15,-58,1
2021-11-08 23:26:11.968750-05:00,-15,-58,1
2021-11-08 23:26:12-05:00,-16,-59,2
2021-11-08 23:26:12.031250-05:00,-16,-58,2
2021-11-08 23:26:12.062500-05:00,-16,-59,1
2021-11-08 23:26:12.093750-05:00,-17,-60,1
2021-11-08 23:26:12.125000-05:00,-20,-61,0
2021-11-08 23:26:12.156250-05:00,-24,-63,1
2021-11-08 23:26:12.187500-05:00,-23,-64,1
2021-11-08 23:26:12.218750-05:00,-23,-64,3
2021-11-08 23:26:12.250000-05:00,-24,-63,3
2021-11-08 23:26:12.281250-05:00,-27,-63,2
2021-11-08 23:26:12.312500-05:00,-26,-62,2
2021-11-08 23:26:12.343750-05:00,-24,-60,4
2021-11-08 23:26:12.375000-05:00,-25,-59,5
2021-11-08 23:26:12.406250-05:00,-27,-60,5
2021-11-08 23:26:12.437500-05:00,-31,-64,8
2021-11-08 23:26:12.468750-05:00,-31,-64,9
2021-11-08 23:26:12.500000-05:00,-33,-65,10
2021-11-08 23:26:12.531250-05:00,-32,-63,13
2021-11-08 23:26:12.562500-05:00,-34,-61,12
2021-11-08 23:26:12.593750-05:00,-33,-58,14
2021-11-08 23:26:12.625000-05:00,-28,-59,15
2021-11-08 23:26:12.656250-05:00,-15,-55,22
2021-11-08 23:26:12.687500-05:00,-9,-57,26
2021-11-08 23:26:12.718750-05:00,-6,-46,34
2021-11-08 23:26:12.750000-05:00,-10,-47,35
2021-11-08 23:26:12.781250-05:00,-10,-46,35
2021-11-08 23:26:12.812500-05:00,-10,-45,38
2021-11-08 23:26:12.843750-05:00,-8,-45,40
2021-11-08 23:26:12.875000-05:00,-8,-43,42
2021-11-08 23:26:12.906250-05:00,-9,-43,44
2021-11-08 23:26:12.937500-05:00,-9,-41,44
2021-11-08 23:26:12.968750-05:00,-7,-40,46
2021-11-08 23:26:13-05:00,-8,-39,46
2021-11-08 23:26:13.031250-05:00,-8,-38,45
2021-11-08 23:26:13.062500-05:00,-8,-36,45
2021-11-08 23:26:13.093750-05:00,-10,-35,47
2021-11-08 23:26:13.125000-05:00,-10,-35,48
2021-11-08 23:26:13.156250-05:00,-11,-33,49
2021-11-08 23:26:13.187500-05:00,-11,-33,50
2021-11-08 23:26:13.218750-05:00,-11,-33,49
2021-11-08 23:26:13.250000-05:00,-11,-31,49
2021-11-08 23:26:13.281250-05:00,-12,-30,48
2021-11-08 23:26:13.312500-05:00,-13,-30,50
2021-11-08 23:26:13.343750-05:00,-12,-30,51
2021-11-08 23:26:13.375000-05:00,-11,-31,52
2021-11-08 23:26:13.406250-05:00,-9,-31,52
2021-11-08 23:26:13.437500-05:00,-9,-31,52
2021-11-08 23:26:13.468750-05:00,-10,-31,52
2021-11-08 23:26:13.500000-05:00,-10,-31,52
2021-11-08 23:26:13.531250-05:00,-9,-32,53
2021-11-08 23:26:13.562500-05:00,-9,-32,52
2021-11-08 23:26:13.593750-05:00,-8,-33,52
2021-11-08 23:26:13.625000-05:00,-7,-33,53
2021-11-08 23:26:13.656250-05:00,-7,-33,53
2021-11-08 23:26:13.687500-05:00,-8,-33,51
2021-11-08 23:26:13.718750-05:00,-9,-34,52
2021-11-08 23:26:13.750000-05:00,-8,-33,52
2021-11-08 23:26:13.781250-05:00,-9,-33,51
2021-11-08 23:26:13.812500-05:00,-10,-32,51
2021-11-08 23:26:13.843750-05:00,-11,-32,51
2021-11-08 23:26:13.875000-05:00,-11,-32,51
2021-11-08 23:26:13.906250-05:00,-12,-33,51
2021-11-08 23:26:13.937500-05:00,-11,-34,53
2021-11-08 23:26:13.968750-05:00,-9,-35,55
2021-11-08 23:26:14-05:00,-11,-34,52
2021-11-08 23:26:14.031250-05:00,-12,-34,51
2021-11-08 23:26:14.062500-05:00,-12,-35,53
2021-11-08 23:26:14.093750-05:00,-12,-35,52
2021-11-08 23:26:14.125000-05:00,-12,-35,51
2021-11-08 23:26:14.156250-05:00,-13,-35,51
2021-11-08 23:26:14.187500-05:00,-13,-35,49
2021-11-08 23:26:14.218750-05:00,-14,-35,49
2021-11-08 23:26:14.250000-05:00,-13,-35,49
2021-11-08 23:26:14.281250-05:00,-14,-35,49
2021-11-08 23:26:14.312500-05:00,-14,-35,49
2021-11-08 23:26:14.343750-05:00,-14,-36,50
2021-11-08 23:26:14.375000-05:00,-14,-36,50
2021-11-08 23:26:14.406250-05:00,-14,-37,50
2021-11-08 23:26:14.437500-05:00,-13,-37,50
2021-11-08 23:26:14.468750-05:00,-13,-36,49
2021-11-08 23:26:14.500000-05:00,-13,-36,48
2021-11-08 23:26:14.531250-05:00,-13,-36,47
2021-11-08 23:26:14.562500-05:00,-12,-35,46
2021-11-08 23:26:14.593750-05:00,-13,-36,45
2021-11-08 23:26:14.625000-05:00,-13,-37,45
2021-11-08 23:26:14.656250-05:00,-14,-38,45
2021-11-08 23:26:14.687500-05:00,-14,-39,45
2021-11-08 23:26:14.718750-05:00,-13,-42,47
2021-11-08 23:26:14.750000-05:00,-14,-42,45
2021-11-08 23:26:14.781250-05:00,-16,-42,44
2021-11-08 23:26:14.812500-05:00,-16,-42,44
2021-11-08 23:26:14.843750-05:00,-14,-44,47
2021-11-08 23:26:14.875000-05:00,-14,-43,45
2021-11-08 23:26:14.906250-05:00,-15,-43,44
2021-11-08 23:26:14.937500-05:00,-15,-43,43
2021-11-08 23:26:14.968750-05:00,-15,-43,43
2021-11-08 23:26:15-05:00,-15,-43,41
2021-11-08 23:26:15.031250-05:00,-16,-43,40
2021-11-08 23:26:15.062500-05:00,-16,-45,41
2021-11-08 23:26:15.093750-05:00,-15,-45,41
2021-11-08 23:26:15.125000-05:00,-15,-45,40
2021-11-08 23:26:15.156250-05:00,-15,-45,37
2021-11-08 23:26:15.187500-05:00,-15,-45,36
2021-11-08 23:26:15.218750-05:00,-13,-45,35
2021-11-08 23:26:15.250000-05:00,-13,-47,35
2021-11-08 23:26:15.281250-05:00,-14,-49,33
2021-11-08 23:26:15.312500-05:00,-15,-51,33
2021-11-08 23:26:15.343750-05:00,-14,-53,33
2021-11-08 23:26:15.375000-05:00,-14,-54,34
2021-11-08 23:26:15.406250-05:00,-15,-55,33
2021-11-08 23:26:15.437500-05:00,-16,-55,31
2021-11-08 23:26:15.468750-05:00,-15,-56,31
2021-11-08 23:26:15.500000-05:00,-14,-55,30
2021-11-08 23:26:15.531250-05:00,-14,-55,29
2021-11-08 23:26:15.562500-05:00,-15,-56,30
2021-11-08 23:26:15.593750-05:00,-17,-57,28
2021-11-08 23:26:15.625000-05:00,-16,-57,28
2021-11-08 23:26:15.656250-05:00,-15,-56,27
2021-11-08 23:26:15.687500-05:00,-15,-56,26
2021-11-08 23:26:15.718750-05:00,-16,-56,24
2021-11-08 23:26:15.750000-05:00,-15,-56,24
2021-11-08 23:26:15.781250-05:00,-14,-55,23
2021-11-08 23:26:15.812500-05:00,-14,-56,21
2021-11-08 23:26:15.843750-05:00,-15,-56,20
2021-11-08 23:26:15.875000-05:00,-13,-58,19
2021-11-08 23:26:15.906250-05:00,-12,-58,19
2021-11-08 23:26:15.937500-05:00,-8,-58,18
2021-11-08 23:26:15.968750-05:00,-9,-59,17
2021-11-08 23:26:16-05:00,-13,-60,14
2021-11-08 23:26:16.031250-05:00,-15,-62,13
2021-11-08 23:26:16.062500-05:00,-12,-63,14
2021-11-08 23:26:16.093750-05:00,-13,-65,14
2021-11-08 23:26:16.125000-05:00,-13,-65,13
2021-11-08 23:26:16.156250-05:00,-13,-66,12
2021-11-08 23:26:16.187500-05:00,-12,-65,12
2021-11-08 23:26:16.218750-05:00,-13,-64,11
2021-11-08 23:26:16.250000-05:00,-14,-63,11
2021-11-08 23:26:16.281250-05:00,-15,-62,11
2021-11-08 23:26:16.312500-05:00,-14,-60,10
2021-11-08 23:26:16.343750-05:00,-13,-60,10
2021-11-08 23:26:16.375000-05:00,-12,-60,10
2021-11-08 23:26:16.406250-05:00,-13,-61,9
2021-11-08 23:26:16.437500-05:00,-15,-62,8
2021-11-08 23:26:16.468750-05:00,-14,-62,9
2021-11-08 23:26:16.500000-05:00,-12,-62,9
2021-11-08 23:26:16.531250-05:00,-11,-62,10
2021-11-08 23:26:16.562500-05:00,-12,-62,10
2021-11-08 23:26:16.593750-05:00,-13,-62,9
2021-11-08 23:26:16.625000-05:00,-11,-63,10
2021-11-08 23:26:16.656250-05:00,-10,-63,10
2021-11-08 23:26:16.687500-05:00,-9,-63,10
2021-11-08 23:26:16.718750-05:00,-10,-63,9
2021-11-08 23:26:16.750000-05:00,-12,-62,8
2021-11-08 23:26:16.781250-05:00,-12,-62,8
2021-11-08 23:26:16.812500-05:00,-11,-61,9
2021-11-08 23:26:16.843750-05:00,-10,-61,9
2021-11-08 23:26:16.875000-05:00,-11,-61,8
2021-11-08 23:26:16.906250-05:00,-11,-61,8
2021-11-08 23:26:16.937500-05:00,-12,-62,8
2021-11-08 23:26:16.968750-05:00,-12,-62,8
2021-11-08 23:26:17-05:00,-11,-61,9
2021-11-08 23:26:17.031250-05:00,-12,-61,9
2021-11-08 23:26:17.062500-05:00,-12,-61,8
2021-11-08 23:26:17.093750-05:00,-12,-61,8
2021-11-08 23:26:17.125000-05:00,-12,-61,9
2021-11-08 23:26:17.156250-05:00,-12,-61,9
2021-11-08 23:26:17.187500-05:00,-12,-62,9
2021-11-08 23:26:17.218750-05:00,-12,-61,9
2021-11-08 23:26:17.250000-05:00,-13,-62,8
2021-11-08 23:26:17.281250-05:00,-12,-61,10
2021-11-08 23:26:17.312500-05:00,-12,-62,10
2021-11-08 23:26:17.343750-05:00,-13,-62,9
2021-11-08 23:26:17.375000-05:00,-13,-62,9
2021-11-08 23:26:17.406250-05:00,-12,-62,10
2021-11-08 23:26:17.437500-05:00,-12,-62,10
2021-11-08 23:26:17.468750-05:00,-12,-62,9
2021-11-08 23:26:17.500000-05:00,-13,-62,9
2021-11-08 23:26:17.531250-05:00,-13,-62,9
2021-11-08 23:26:17.562500-05:00,-12,-63,10
2021-11-08 23:26:17.593750-05:00,-12,-62,9
2021-11-08 23:26:17.625000-05:00,-12,-62,8
2021-11-08 23:26:17.656250-05:00,-12,-62,9
2021-11-08 23:26:17.687500-05:00,-11,-61,9
2021-11-08 23:26:17.718750-05:00,-11,-61,9
2021-11-08 23:26:17.750000-05:00,-12,-61,9
2021-11-08 23:26:17.781250-05:00,-12,-61,8
2021-11-08 23:26:17.812500-05:00,-12,-61,9
2021-11-08 23:26:17.843750-05:00,-12,-61,8
2021-11-08 23:26:17.875000-05:00,-13,-62,7
2021-11-08 23:26:17.906250-05:00,-13,-61,8
2021-11-08 23:26:17.937500-05:00,-12,-61,8
2021-11-08 23:26:17.968750-05:00,-11,-61,9
2021-11-08 23:26:18-05:00,-11,-61,9
2021-11-08 23:26:18.031250-05:00,-12,-61,9
2021-11-08 23:26:18.062500-05:00,-12,-62,9
2021-11-08 23:26:18.093750-05:00,-12,-62,8
2021-11-08 23:26:18.125000-05:00,-12,-62,9
2021-11-08 23:26:18.156250-05:00,-12,-61,9
2021-11-08 23:26:18.187500-05:00,-12,-62,9
2021-11-08 23:26:18.218750-05:00,-12,-62,9
2021-11-08 23:26:18.250000-05:00,-13,-62,9
2021-11-08 23:26:18.281250-05:00,-12,-61,9
2021-11-08 23:26:18.312500-05:00,-12,-62,9
2021-11-08 23:26:18.343750-05:00,-12,-62,9
2021-11-08 23:26:18.375000-05:00,-12,-62,9
2021-11-08 23:26:18.406250-05:00,-13,-63,8
2021-11-08 23:26:18.437500-05:00,-12,-62,9
2021-11-08 23:26:18.468750-05:00,-12,-61,8
2021-11-08 23:26:18.500000-05:00,-12,-61,8
2021-11-08 23:26:18.531250-05:00,-13,-61,8
2021-11-08 23:26:18.562500-05:00,-13,-61,8
2021-11-08 23:26:18.593750-05:00,-12,-62,8
2021-11-08 23:26:18.625000-05:00,-12,-62,9
2021-11-08 23:26:18.656250-05:00,-12,-61,7
2021-11-08 23:26:18.687500-05:00,-13,-62,8
2021-11-08 23:26:18.718750-05:00,-12,-62,9
2021-11-08 23:26:18.750000-05:00,-12,-62,8
2021-11-08 23:26:18.781250-05:00,-12,-62,8
2021-11-08 23:26:18.812500-05:00,-12,-62,9
2021-11-08 23:26:18.843750-05:00,-12,-61,9
2021-11-08 23:26:18.875000-05:00,-12,-62,8
2021-11-08 23:26:18.906250-05:00,-12,-62,8
2021-11-08 23:26:18.937500-05:00,-11,-62,8
2021-11-08 23:26:18.968750-05:00,-12,-62,8
2021-11-08 23:26:19-05:00,-11,-62,8
2021-11-08 23:26:19.031250-05:00,-12,-62,8
2021-11-08 23:26:19.062500-05:00,-12,-62,8
2021-11-08 23:26:19.093750-05:00,-12,-61,8
2021-11-08 23:26:19.125000-05:00,-12,-62,8
2021-11-08 23:26:19.156250-05:00,-13,-62,8
2021-11-08 23:26:19.187500-05:00,-12,-62,8
2021-11-08 23:26:19.218750-05:00,-12,-62,8
2021-11-08 23:26:19.250000-05:00,-12,-62,8
2021-11-08 23:26:19.281250-05:00,-12,-62,8
2021-11-08 23:26:19.312500-05:00,-12,-62,8
2021-11-08 23:26:19.343750-05:00,-12,-62,8
2021-11-08 23:26:19.375000-05:00,-12,-62,7
2021-11-08 23:26:19.406250-05:00,-12,-62,7
2021-11-08 23:26:19.437500-05:00,-12,-61,7
2021-11-08 23:26:19.468750-05:00,-12,-61,7
2021-11-08 23:26:19.500000-05:00,-12,-62,7
2021-11-08 23:26:19.531250-05:00,-11,-63,7
2021-11-08 23:26:19.562500-05:00,-11,-63,7
2021-11-08 23:26:19.593750-05:00,-11,-62,7
2021-11-08 23:26:19.625000-05:00,-11,-62,7
2021-11-08 23:26:19.656250-05:00,-11,-62,7
2021-11-08 23:26:19.687500-05:00,-11,-62,7
2021-11-08 23:26:19.718750-05:00,-11,-61,7
2021-11-08 23:26:19.750000-05:00,-11,-62,7
2021-11-08 23:26:19.781250-05:00,-11,-62,7
2021-11-08 23:26:19.812500-05:00,-12,-62,7
2021-11-08 23:26:19.843750-05:00,-12,-62,7
2021-11-08 23:26:19.875000-05:00,-12,-62,7
2021-11-08 23:26:19.906250-05:00,-12,-62,7
2021-11-08 23:26:19.937500-05:00,-12,-62,7
2021-11-08 23:26:19.968750-05:00,-13,-62,7
2021-11-08 23:26:20-05:00,-13,-62,7
2021-11-08 23:26:20.031250-05:00,-12,-62,8
2021-11-08 23:26:20.062500-05:00,-13,-62,7
2021-11-08 23:26:20.093750-05:00,-13,-62,8
2021-11-08 23:26:20.125000-05:00,-12,-62,8
2021-11-08 23:26:20.156250-05:00,-12,-62,7
2021-11-08 23:26:20.187500-05:00,-12,-62,7
2021-11-08 23:26:20.218750-05:00,-12,-62,7
2021-11-08 23:26:20.250000-05:00,-12,-62,7
2021-11-08 23:26:20.281250-05:00,-13,-62,6
2021-11-08 23:26:20.312500-05:00,-13,-62,6
2021-11-08 23:26:20.343750-05:00,-13,-62,6
2021-11-08 23:26:20.375000-05:00,-13,-61,6
2021-11-08 23:26:20.406250-05:00,-13,-62,6
2021-11-08 23:26:20.437500-05:00,-13,-62,6
2021-11-08 23:26:20.468750-05:00,-13,-62,6
2021-11-08 23:26:20.500000-05:00,-13,-62,6
2021-11-08 23:26:20.531250-05:00,-13,-62,6
2021-11-08 23:26:20.562500-05:00,-13,-62,7
2021-11-08 23:26:20.593750-05:00,-13,-62,7
2021-11-08 23:26:20.625000-05:00,-14,-62,6
2021-11-08 23:26:20.656250-05:00,-13,-62,6
2021-11-08 23:26:20.687500-05:00,-14,-62,6
2021-11-08 23:26:20.718750-05:00,-14,-62,5
2021-11-08 23:26:20.750000-05:00,-13,-62,6
2021-11-08 23:26:20.781250-05:00,-12,-62,7
2021-11-08 23:26:20.812500-05:00,-12,-62,6
2021-11-08 23:26:20.843750-05:00,-13,-62,6
2021-11-08 23:26:20.875000-05:00,-13,-62,6
2021-11-08 23:26:20.906250-05:00,-14,-62,6
2021-11-08 23:26:20.937500-05:00,-13,-62,6
2021-11-08 23:26:20.968750-05:00,-13,-62,6
2021-11-08 23:26:21-05:00,-13,-62,6
2021-11-08 23:26:21.031250-05:00,-14,-62,6
2021-11-08 23:26:21.062500-05:00,-13,-62,6
2021-11-08 23:26:21.093750-05:00,-13,-62,6
2021-11-08 23:26:21.125000-05:00,-14,-62,6
2021-11-08 23:26:21.156250-05:00,-14,-62,5
2021-11-08 23:26:21.187500-05:00,-14,-62,5
2021-11-08 23:26:21.218750-05:00,-13,-62,6
2021-11-08 23:26:21.250000-05:00,-13,-62,5
2021-11-08 23:26:21.281250-05:00,-13,-62,5
2021-11-08 23:26:21.312500-05:00,-13,-62,5
2021-11-08 23:26:21.343750-05:00,-13,-62,6
2021-11-08 23:26:21.375000-05:00,-13,-62,6
2021-11-08 23:26:21.406250-05:00,-13,-62,6
2021-11-08 23:26:21.437500-05:00,-13,-62,6
2021-11-08 23:26:21.468750-05:00,-13,-62,6
2021-11-08 23:26:21.500000-05:00,-13,-62,6
2021-11-08 23:26:21.531250-05:00,-13,-62,6
2021-11-08 23:26:21.562500-05:00,-14,-62,6
2021-11-08 23:26:21.593750-05:00,-13,-62,6
2021-11-08 23:26:21.625000-05:00,-13,-61,6
2021-11-08 23:26:21.656250-05:00,-13,-62,6
2021-11-08 23:26:21.687500-05:00,-13,-62,6
2021-11-08 23:26:21.718750-05:00,-13,-62,6
2021-11-08 23:26:21.750000-05:00,-13,-62,6
2021-11-08 23:26:21.781250-05:00,-13,-62,6
2021-11-08 23:26:21.812500-05:00,-13,-62,6
2021-11-08 23:26:21.843750-05:00,-13,-62,6
2021-11-08 23:26:21.875000-05:00,-13,-62,6
2021-11-08 23:26:21.906250-05:00,-13,-62,6
2021-11-08 23:26:21.937500-05:00,-13,-62,6
2021-11-08 23:26:21.968750-05:00,-13,-62,7
2021-11-08 23:26:22-05:00,-13,-62,6
2021-11-08 23:26:22.031250-05:00,-13,-62,7
2021-11-08 23:26:22.062500-05:00,-13,-62,6
2021-11-08 23:26:22.093750-05:00,-13,-62,7
2021-11-08 23:26:22.125000-05:00,-13,-61,6
2021-11-08 23:26:22.156250-05:00,-13,-62,6
2021-11-08 23:26:22.187500-05:00,-13,-62,6
2021-11-08 23:26:22.218750-05:00,-13,-62,7
2021-11-08 23:26:22.250000-05:00,-13,-62,7
2021-11-08 23:26:22.281250-05:00,-13,-62,7
2021-11-08 23:26:22.312500-05:00,-13,-62,7
2021-11-08 23:26:22.343750-05:00,-12,-62,7
2021-11-08 23:26:22.375000-05:00,-12,-62,6
2021-11-08 23:26:22.406250-05:00,-13,-62,6
2021-11-08 23:26:22.437500-05:00,-13,-63,6
2021-11-08 23:26:22.468750-05:00,-12,-62,7
2021-11-08 23:26:22.500000-05:00,-12,-62,7
2021-11-08 23:26:22.531250-05:00,-12,-63,7
2021-11-08 23:26:22.562500-05:00,-12,-62,7
2021-11-08 23:26:22.593750-05:00,-12,-62,7
2021-11-08 23:26:22.625000-05:00,-12,-62,6
2021-11-08 23:26:22.656250-05:00,-12,-62,6
2021-11-08 23:26:22.687500-05:00,-12,-62,6
2021-11-08 23:26:22.718750-05:00,-12,-62,6
2021-11-08 23:26:22.750000-05:00,-12,-62,6
2021-11-08 23:26:22.781250-05:00,-13,-62,6
2021-11-08 23:26:22.812500-05:00,-12,-62,6
2021-11-08 23:26:22.843750-05:00,-13,-62,6
2021-11-08 23:26:22.875000-05:00,-13,-62,6
2021-11-08 23:26:22.906250-05:00,-13,-62,6
2021-11-08 23:26:22.937500-05:00,-12,-62,6
2021-11-08 23:26:22.968750-05:00,-12,-62,6
2021-11-08 23:26:23-05:00,-12,-62,7
2021-11-08 23:26:23.031250-05:00,-12,-62,7
2021-11-08 23:26:23.062500-05:00,-12,-62,7
2021-11-08 23:26:23.093750-05:00,-12,-62,7
2021-11-08 23:26:23.125000-05:00,-11,-63,7
2021-11-08 23:26:23.156250-05:00,-11,-62,7
2021-11-08 23:26:23.187500-05:00,-11,-62,8
2021-11-08 23:26:23.218750-05:00,-11,-62,7
2021-11-08 23:26:23.250000-05:00,-12,-62,7
2021-11-08 23:26:23.281250-05:00,-12,-62,7
2021-11-08 23:26:23.312500-05:00,-12,-62,6
2021-11-08 23:26:23.343750-05:00,-12,-62,6
2021-11-08 23:26:23.375000-05:00,-12,-62,6
2021-11-08 23:26:23.406250-05:00,-12,-62,6
2021-11-08 23:26:23.437500-05:00,-12,-62,7
2021-11-08 23:26:23.468750-05:00,-12,-62,7
2021-11-08 23:26:23.500000-05:00,-12,-62,7
2021-11-08 23:26:23.531250-05:00,-12,-62,7
2021-11-08 23:26:23.562500-05:00,-12,-62,7
2021-11-08 23:26:23.593750-05:00,-12,-62,7
2021-11-08 23:26:23.625000-05:00,-13,-63,8
2021-11-08 23:26:23.656250-05:00,-14,-63,9
2021-11-08 23:26:23.687500-05:00,-15,-64,10
2021-11-08 23:26:23.718750-05:00,-15,-65,12
2021-11-08 23:26:23.750000-05:00,-17,-65,14
2021-11-08 23:26:23.781250-05:00,-17,-63,15
2021-11-08 23:26:23.812500-05:00,-19,-63,16
2021-11-08 23:26:23.843750-05:00,-20,-64,17
2021-11-08 23:26:23.875000-05:00,-20,-64,17
2021-11-08 23:26:23.906250-05:00,-19,-63,21
2021-11-08 23:26:23.937500-05:00,-18,-62,22
2021-11-08 23:26:23.968750-05:00,-21,-62,21
2021-11-08 23:26:24-05:00,-18,-60,24
2021-11-08 23:26:24.031250-05:00,-14,-59,26
2021-11-08 23:26:24.062500-05:00,-10,-56,29
2021-11-08 23:26:24.093750-05:00,-11,-55,30
2021-11-08 23:26:24.125000-05:00,-9,-51,30
2021-11-08 23:26:24.156250-05:00,-8,-50,32
2021-11-08 23:26:24.187500-05:00,-9,-49,34
2021-11-08 23:26:24.218750-05:00,-9,-46,37
2021-11-08 23:26:24.250000-05:00,-9,-45,38
2021-11-08 23:26:24.281250-05:00,-8,-43,40
2021-11-08 23:26:24.312500-05:00,-8,-43,42
2021-11-08 23:26:24.343750-05:00,-8,-42,45
2021-11-08 23:26:24.375000-05:00,-8,-41,46
2021-11-08 23:26:24.406250-05:00,-9,-41,49
2021-11-08 23:26:24.437500-05:00,-8,-38,49
2021-11-08 23:26:24.468750-05:00,-8,-36,50
2021-11-08 23:26:24.500000-05:00,-7,-33,51
2021-11-08 23:26:24.531250-05:00,-7,-32,51
2021-11-08 23:26:24.562500-05:00,-6,-29,51
2021-11-08 23:26:24.593750-05:00,-7,-29,51
2021-11-08 23:26:24.625000-05:00,-8,-27,52
2021-11-08 23:26:24.656250-05:00,-9,-26,52
2021-11-08 23:26:24.687500-05:00,-8,-25,53
2021-11-08 23:26:24.718750-05:00,-9,-24,51
2021-11-08 23:26:24.750000-05:00,-8,-23,52
2021-11-08 23:26:24.781250-05:00,-8,-24,53
2021-11-08 23:26:24.812500-05:00,-8,-25,54
2021-11-08 23:26:24.843750-05:00,-9,-25,54
2021-11-08 23:26:24.875000-05:00,-10,-26,58
2021-11-08 23:26:24.906250-05:00,-11,-27,60
2021-11-08 23:26:24.937500-05:00,-12,-27,59
2021-11-08 23:26:24.968750-05:00,-13,-26,58
2021-11-08 23:26:25-05:00,-13,-26,57
2021-11-08 23:26:25.031250-05:00,-14,-24,56
2021-11-08 23:26:25.062500-05:00,-14,-22,53
2021-11-08 23:26:25.093750-05:00,-10,-23,56
2021-11-08 23:26:25.125000-05:00,-11,-24,54
2021-11-08 23:26:25.156250-05:00,-12,-23,55
2021-11-08 23:26:25.187500-05:00,-11,-23,55
2021-11-08 23:26:25.218750-05:00,-12,-22,56
2021-11-08 23:26:25.250000-05:00,-11,-22,56
2021-11-08 23:26:25.281250-05:00,-12,-22,55
2021-11-08 23:26:25.312500-05:00,-12,-22,57
2021-11-08 23:26:25.343750-05:00,-11,-22,57
2021-11-08 23:26:25.375000-05:00,-12,-21,56
2021-11-08 23:26:25.406250-05:00,-12,-21,56
2021-11-08 23:26:25.437500-05:00,-11,-21,58
2021-11-08 23:26:25.468750-05:00,-13,-21,58
2021-11-08 23:26:25.500000-05:00,-12,-22,58
2021-11-08 23:26:25.531250-05:00,-12,-22,58
2021-11-08 23:26:25.562500-05:00,-12,-22,59
2021-11-08 23:26:25.593750-05:00,-12,-21,59
2021-11-08 23:26:25.625000-05:00,-12,-21,58
2021-11-08 23:26:25.656250-05:00,-11,-21,57
2021-11-08 23:26:25.687500-05:00,-14,-22,57
2021-11-08 23:26:25.718750-05:00,-13,-22,57
2021-11-08 23:26:25.750000-05:00,-12,-21,57
2021-11-08 23:26:25.781250-05:00,-12,-21,57
2021-11-08 23:26:25.812500-05:00,-11,-21,57
2021-11-08 23:26:25.843750-05:00,-11,-21,57
2021-11-08 23:26:25.875000-05:00,-11,-22,58
2021-11-08 23:26:25.906250-05:00,-12,-21,57
2021-11-08 23:26:25.937500-05:00,-11,-22,57
2021-11-08 23:26:25.968750-05:00,-12,-22,58
2021-11-08 23:26:26-05:00,-12,-22,58
2021-11-08 23:26:26.031250-05:00,-11,-22,58
2021-11-08 23:26:26.062500-05:00,-11,-21,57
2021-11-08 23:26:26.093750-05:00,-11,-21,58
2021-11-08 23:26:26.125000-05:00,-11,-21,57
2021-11-08 23:26:26.156250-05:00,-11,-21,57
2021-11-08 23:26:26.187500-05:00,-12,-21,57
2021-11-08 23:26:26.218750-05:00,-12,-22,58
2021-11-08 23:26:26.250000-05:00,-12,-22,58
2021-11-08 23:26:26.281250-05:00,-12,-22,58
2021-11-08 23:26:26.312500-05:00,-12,-21,58
2021-11-08 23:26:26.343750-05:00,-12,-21,58
2021-11-08 23:26:26.375000-05:00,-12,-21,58
2021-11-08 23:26:26.406250-05:00,-12,-21,58
2021-11-08 23:26:26.437500-05:00,-12,-21,58
2021-11-08 23:26:26.468750-05:00,-12,-21,58
2021-11-08 23:26:26.500000-05:00,-13,-21,57
2021-11-08 23:26:26.531250-05:00,-12,-21,57
2021-11-08 23:26:26.562500-05:00,-12,-21,58
2021-11-08 23:26:26.593750-05:00,-12,-21,58
2021-11-08 23:26:26.625000-05:00,-12,-21,58
2021-11-08 23:26:26.656250-05:00,-13,-21,59
2021-11-08 23:26:26.687500-05:00,-12,-21,59
2021-11-08 23:26:26.718750-05:00,-12,-20,59
2021-11-08 23:26:26.750000-05:00,-12,-20,58
2021-11-08 23:26:26.781250-05:00,-12,-20,57
2021-11-08 23:26:26.812500-05:00,-12,-20,57
2021-11-08 23:26:26.843750-05:00,-12,-20,57
2021-11-08 23:26:26.875000-05:00,-13,-20,57
2021-11-08 23:26:26.906250-05:00,-12,-20,58
2021-11-08 23:26:26.937500-05:00,-12,-20,58
2021-11-08 23:26:26.968750-05:00,-11,-20,58
2021-11-08 23:26:27-05:00,-12,-20,58
2021-11-08 23:26:27.031250-05:00,-12,-20,58
2021-11-08 23:26:27.062500-05:00,-12,-19,57
2021-11-08 23:26:27.093750-05:00,-12,-19,57
2021-11-08 23:26:27.125000-05:00,-12,-19,58
2021-11-08 23:26:27.156250-05:00,-12,-19,59
2021-11-08 23:26:27.187500-05:00,-11,-20,59
2021-11-08 23:26:27.218750-05:00,-12,-20,60
2021-11-08 23:26:27.250000-05:00,-11,-20,60
2021-11-08 23:26:27.281250-05:00,-11,-19,58
2021-11-08 23:26:27.312500-05:00,-11,-19,57
2021-11-08 23:26:27.343750-05:00,-12,-19,56
2021-11-08 23:26:27.375000-05:00,-12,-19,56
2021-11-08 23:26:27.406250-05:00,-14,-19,56
2021-11-08 23:26:27.437500-05:00,-14,-20,57
2021-11-08 23:26:27.468750-05:00,-14,-20,58
2021-11-08 23:26:27.500000-05:00,-14,-21,58
2021-11-08 23:26:27.531250-05:00,-14,-20,58
2021-11-08 23:26:27.562500-05:00,-13,-21,58
2021-11-08 23:26:27.593750-05:00,-13,-20,58
2021-11-08 23:26:27.625000-05:00,-14,-20,58
2021-11-08 23:26:27.656250-05:00,-14,-21,58
2021-11-08 23:26:27.687500-05:00,-14,-21,58
2021-11-08 23:26:27.718750-05:00,-14,-21,59
2021-11-08 23:26:27.750000-05:00,-14,-21,59
2021-11-08 23:26:27.781250-05:00,-14,-21,58
2021-11-08 23:26:27.812500-05:00,-14,-21,58
2021-11-08 23:26:27.843750-05:00,-14,-22,57
2021-11-08 23:26:27.875000-05:00,-14,-21,56
2021-11-08 23:26:27.906250-05:00,-14,-21,56
2021-11-08 23:26:27.937500-05:00,-15,-21,55
2021-11-08 23:26:27.968750-05:00,-15,-21,56
2021-11-08 23:26:28-05:00,-15,-21,57
2021-11-08 23:26:28.031250-05:00,-15,-21,57
2021-11-08 23:26:28.062500-05:00,-15,-21,57
2021-11-08 23:26:28.093750-05:00,-15,-22,58
2021-11-08 23:26:28.125000-05:00,-14,-22,58
2021-11-08 23:26:28.156250-05:00,-14,-21,57
2021-11-08 23:26:28.187500-05:00,-14,-21,56
2021-11-08 23:26:28.218750-05:00,-14,-21,56
2021-11-08 23:26:28.250000-05:00,-14,-21,57
2021-11-08 23:26:28.281250-05:00,-15,-21,56
2021-11-08 23:26:28.312500-05:00,-15,-21,58
2021-11-08 23:26:28.343750-05:00,-15,-21,58
2021-11-08 23:26:28.375000-05:00,-14,-21,58
2021-11-08 23:26:28.406250-05:00,-14,-21,57
2021-11-08 23:26:28.437500-05:00,-14,-21,57
2021-11-08 23:26:28.468750-05:00,-15,-21,57
2021-11-08 23:26:28.500000-05:00,-15,-22,57
2021-11-08 23:26:28.531250-05:00,-15,-22,56
2021-11-08 23:26:28.562500-05:00,-15,-21,57
2021-11-08 23:26:28.593750-05:00,-16,-21,57
2021-11-08 23:26:28.625000-05:00,-15,-22,57
2021-11-08 23:26:28.656250-05:00,-15,-21,57
2021-11-08 23:26:28.687500-05:00,-15,-22,57
2021-11-08 23:26:28.718750-05:00,-15,-21,57
2021-11-08 23:26:28.750000-05:00,-15,-22,57
2021-11-08 23:26:28.781250-05:00,-14,-22,57
2021-11-08 23:26:28.812500-05:00,-14,-21,57
2021-11-08 23:26:28.843750-05:00,-15,-21,57
2021-11-08 23:26:28.875000-05:00,-14,-22,57
2021-11-08 23:26:28.906250-05:00,-14,-21,57
2021-11-08 23:26:28.937500-05:00,-15,-21,57
2021-11-08 23:26:28.968750-05:00,-14,-21,57
2021-11-08 23:26:29-05:00,-15,-21,57
2021-11-08 23:26:29.031250-05:00,-16,-21,57
2021-11-08 23:26:29.062500-05:00,-16,-22,58
2021-11-08 23:26:29.093750-05:00,-15,-22,57
2021-11-08 23:26:29.125000-05:00,-16,-21,56
2021-11-08 23:26:29.156250-05:00,-16,-21,56
2021-11-08 23:26:29.187500-05:00,-14,-21,55
2021-11-08 23:26:29.218750-05:00,-14,-20,55
2021-11-08 23:26:29.250000-05:00,-15,-20,56
2021-11-08 23:26:29.281250-05:00,-15,-20,56
2021-11-08 23:26:29.312500-05:00,-14,-19,58
2021-11-08 23:26:29.343750-05:00,-15,-19,58
2021-11-08 23:26:29.375000-05:00,-15,-19,59
2021-11-08 23:26:29.406250-05:00,-15,-20,60
2021-11-08 23:26:29.437500-05:00,-16,-20,59
2021-11-08 23:26:29.468750-05:00,-16,-21,59
2021-11-08 23:26:29.500000-05:00,-16,-21,59
2021-11-08 23:26:29.531250-05:00,-15,-21,57
2021-11-08 23:26:29.562500-05:00,-15,-21,57
2021-11-08 23:26:29.593750-05:00,-15,-21,57
2021-11-08 23:26:29.625000-05:00,-15,-20,56
2021-11-08 23:26:29.656250-05:00,-16,-21,56
2021-11-08 23:26:29.687500-05:00,-16,-20,57
2021-11-08 23:26:29.718750-05:00,-16,-20,56
2021-11-08 23:26:29.750000-05:00,-16,-19,57
2021-11-08 23:26:29.781250-05:00,-16,-19,58
2021-11-08 23:26:29.812500-05:00,-16,-19,57
2021-11-08 23:26:29.843750-05:00,-16,-19,57
2021-11-08 23:26:29.875000-05:00,-16,-19,57
2021-11-08 23:26:29.906250-05:00,-16,-20,57
2021-11-08 23:26:29.937500-05:00,-16,-20,57
2021-11-08 23:26:29.968750-05:00,-16,-20,57
2021-11-08 23:26:30-05:00,-15,-20,58
2021-11-08 23:26:30.031250-05:00,-15,-20,58
2021-11-08 23:26:30.062500-05:00,-15,-20,58
2021-11-08 23:26:30.093750-05:00,-15,-20,58
2021-11-08 23:26:30.125000-05:00,-15,-20,57
2021-11-08 23:26:30.156250-05:00,-15,-20,57
2021-11-08 23:26:30.187500-05:00,-16,-20,57
2021-11-08 23:26:30.218750-05:00,-16,-20,58
2021-11-08 23:26:30.250000-05:00,-15,-20,58
2021-11-08 23:26:30.281250-05:00,-15,-19,57
2021-11-08 23:26:30.312500-05:00,-16,-19,57
2021-11-08 23:26:30.343750-05:00,-16,-20,57
2021-11-08 23:26:30.375000-05:00,-16,-20,57
2021-11-08 23:26:30.406250-05:00,-16,-20,57
2021-11-08 23:26:30.437500-05:00,-15,-20,58
2021-11-08 23:26:30.468750-05:00,-15,-20,58
2021-11-08 23:26:30.500000-05:00,-15,-20,58
2021-11-08 23:26:30.531250-05:00,-15,-20,58
2021-11-08 23:26:30.562500-05:00,-15,-20,59
2021-11-08 23:26:30.593750-05:00,-15,-20,58
2021-11-08 23:26:30.625000-05:00,-15,-20,58
2021-11-08 23:26:30.656250-05:00,-14,-19,58
2021-11-08 23:26:30.687500-05:00,-14,-19,57
2021-11-08 23:26:30.718750-05:00,-14,-19,57
2021-11-08 23:26:30.750000-05:00,-14,-19,57
2021-11-08 23:26:30.781250-05:00,-15,-19,57
2021-11-08 23:26:30.812500-05:00,-16,-19,56
2021-11-08 23:26:30.843750-05:00,-16,-19,56
2021-11-08 23:26:30.875000-05:00,-16,-19,57
2021-11-08 23:26:30.906250-05:00,-16,-19,57
2021-11-08 23:26:30.937500-05:00,-16,-19,57
2021-11-08 23:26:30.968750-05:00,-16,-19,57
2021-11-08 23:26:31-05:00,-16,-19,58
2021-11-08 23:26:31.031250-05:00,-16,-19,58
2021-11-08 23:26:31.062500-05:00,-15,-19,58
2021-11-08 23:26:31.093750-05:00,-15,-19,58
2021-11-08 23:26:31.125000-05:00,-15,-19,58
2021-11-08 23:26:31.156250-05:00,-14,-19,58
2021-11-08 23:26:31.187500-05:00,-14,-20,58
2021-11-08 23:26:31.218750-05:00,-14,-19,58
2021-11-08 23:26:31.250000-05:00,-14,-20,58
2021-11-08 23:26:31.281250-05:00,-14,-20,57
2021-11-08 23:26:31.312500-05:00,-14,-20,58
2021-11-08 23:26:31.343750-05:00,-15,-20,57
2021-11-08 23:26:31.375000-05:00,-15,-20,57
2021-11-08 23:26:31.406250-05:00,-15,-20,57
2021-11-08 23:26:31.437500-05:00,-15,-20,57
2021-11-08 23:26:31.468750-05:00,-15,-20,57
2021-11-08 23:26:31.500000-05:00,-15,-20,57
2021-11-08 23:26:31.531250-05:00,-16,-20,57
2021-11-08 23:26:31.562500-05:00,-16,-21,58
2021-11-08 23:26:31.593750-05:00,-16,-20,57
2021-11-08 23:26:31.625000-05:00,-16,-20,57
2021-11-08 23:26:31.656250-05:00,-15,-19,58
2021-11-08 23:26:31.687500-05:00,-15,-19,57
2021-11-08 23:26:31.718750-05:00,-14,-20,58
2021-11-08 23:26:31.750000-05:00,-15,-20,58
2021-11-08 23:26:31.781250-05:00,-15,-20,58
2021-11-08 23:26:31.812500-05:00,-14,-20,58
2021-11-08 23:26:31.843750-05:00,-14,-20,57
2021-11-08 23:26:31.875000-05:00,-14,-20,57
2021-11-08 23:26:31.906250-05:00,-14,-20,57
2021-11-08 23:26:31.937500-05:00,-14,-20,57
2021-11-08 23:26:31.968750-05:00,-15,-20,57
2021-11-08 23:26:32-05:00,-15,-20,57
2021-11-08 23:26:32.031250-05:00,-15,-20,57
2021-11-08 23:26:32.062500-05:00,-15,-19,57
2021-11-08 23:26:32.093750-05:00,-15,-19,57
2021-11-08 23:26:32.125000-05:00,-16,-20,57
2021-11-08 23:26:32.156250-05:00,-16,-20,58
2021-11-08 23:26:32.187500-05:00,-16,-20,58
2021-11-08 23:26:32.218750-05:00,-15,-20,58
2021-11-08 23:26:32.250000-05:00,-15,-20,58
2021-11-08 23:26:32.281250-05:00,-15,-20,58
2021-11-08 23:26:32.312500-05:00,-14,-20,57
2021-11-08 23:26:32.343750-05:00,-14,-21,57
2021-11-08 23:26:32.375000-05:00,-14,-21,57
2021-11-08 23:26:32.406250-05:00,-14,-21,57
2021-11-08 23:26:32.437500-05:00,-15,-20,57
2021-11-08 23:26:32.468750-05:00,-15,-20,57
2021-11-08 23:26:32.500000-05:00,-15,-21,57
2021-11-08 23:26:32.531250-05:00,-15,-21,58
2021-11-08 23:26:32.562500-05:00,-15,-21,58
2021-11-08 23:26:32.593750-05:00,-15,-20,57
2021-11-08 23:26:32.625000-05:00,-15,-20,57
2021-11-08 23:26:32.656250-05:00,-15,-20,57
2021-11-08 23:26:32.687500-05:00,-15,-21,57
2021-11-08 23:26:32.718750-05:00,-15,-21,57
2021-11-08 23:26:32.750000-05:00,-15,-21,57
2021-11-08 23:26:32.781250-05:00,-15,-21,57
2021-11-08 23:26:32.812500-05:00,-15,-20,57
2021-11-08 23:26:32.843750-05:00,-15,-20,57
2021-11-08 23:26:32.875000-05:00,-15,-21,57
2021-11-08 23:26:32.906250-05:00,-15,-20,57
2021-11-08 23:26:32.937500-05:00,-15,-20,57
2021-11-08 23:26:32.968750-05:00,-14,-20,57
2021-11-08 23:26:33-05:00,-15,-20,57
2021-11-08 23:26:33.031250-05:00,-15,-20,57
2021-11-08 23:26:33.062500-05:00,-15,-20,57
2021-11-08 23:26:33.093750-05:00,-16,-21,57
2021-11-08 23:26:33.125000-05:00,-15,-21,57
2021-11-08 23:26:33.156250-05:00,-15,-20,57
2021-11-08 23:26:33.187500-05:00,-15,-20,57
2021-11-08 23:26:33.218750-05:00,-15,-20,58
2021-11-08 23:26:33.250000-05:00,-15,-20,58
2021-11-08 23:26:33.281250-05:00,-15,-20,58
2021-11-08 23:26:33.312500-05:00,-15,-20,58
2021-11-08 23:26:33.343750-05:00,-15,-20,57
2021-11-08 23:26:33.375000-05:00,-15,-20,57
2021-11-08 23:26:33.406250-05:00,-15,-20,57
2021-11-08 23:26:33.437500-05:00,-15,-21,57
2021-11-08 23:26:33.468750-05:00,-15,-21,57
2021-11-08 23:26:33.500000-05:00,-15,-20,56
2021-11-08 23:26:33.531250-05:00,-15,-20,57
2021-11-08 23:26:33.562500-05:00,-16,-20,57
2021-11-08 23:26:33.593750-05:00,-15,-20,58
2021-11-08 23:26:33.625000-05:00,-15,-20,57
2021-11-08 23:26:33.656250-05:00,-15,-20,58
2021-11-08 23:26:33.687500-05:00,-15,-20,57
2021-11-08 23:26:33.718750-05:00,-15,-20,58
2021-11-08 23:26:33.750000-05:00,-16,-20,57
2021-11-08 23:26:33.781250-05:00,-15,-20,57
2021-11-08 23:26:33.812500-05:00,-15,-20,57
2021-11-08 23:26:33.843750-05:00,-16,-20,57
2021-11-08 23:26:33.875000-05:00,-15,-20,58
2021-11-08 23:26:33.906250-05:00,-15,-20,57
2021-11-08 23:26:33.937500-05:00,-15,-20,57
2021-11-08 23:26:33.968750-05:00,-15,-20,57
2021-11-08 23:26:34-05:00,-16,-20,57
2021-11-08 23:26:34.031250-05:00,-16,-20,57
2021-11-08 23:26:34.062500-05:00,-16,-20,57
2021-11-08 23:26:34.093750-05:00,-16,-20,57
2021-11-08 23:26:34.125000-05:00,-16,-20,57
2021-11-08 23:26:34.156250-05:00,-16,-21,57
2021-11-08 23:26:34.187500-05:00,-15,-20,57
2021-11-08 23:26:34.218750-05:00,-15,-20,57
2021-11-08 23:26:34.250000-05:00,-15,-20,57
2021-11-08 23:26:34.281250-05:00,-16,-20,57
2021-11-08 23:26:34.312500-05:00,-15,-20,57
2021-11-08 23:26:34.343750-05:00,-16,-20,57
2021-11-08 23:26:34.375000-05:00,-16,-20,58
2021-11-08 23:26:34.406250-05:00,-16,-20,58
2021-11-08 23:26:34.437500-05:00,-16,-20,57
2021-11-08 23:26:34.468750-05:00,-16,-20,58
2021-11-08 23:26:34.500000-05:00,-15,-20,57
2021-11-08 23:26:34.531250-05:00,-15,-21,57
2021-11-08 23:26:34.562500-05:00,-15,-20,57
2021-11-08 23:26:34.593750-05:00,-15,-20,56
2021-11-08 23:26:34.625000-05:00,-16,-20,57
2021-11-08 23:26:34.656250-05:00,-16,-20,57
2021-11-08 23:26:34.687500-05:00,-16,-20,57
2021-11-08 23:26:34.718750-05:00,-16,-20,57
2021-11-08 23:26:34.750000-05:00,-17,-20,57
2021-11-08 23:26:34.781250-05:00,-16,-20,57
2021-11-08 23:26:34.812500-05:00,-16,-20,57
2021-11-08 23:26:34.843750-05:00,-16,-20,57
2021-11-08 23:26:34.875000-05:00,-16,-20,57
2021-11-08 23:26:34.906250-05:00,-16,-20,58
2021-11-08 23:26:34.937500-05:00,-16,-20,57
2021-11-08 23:26:34.968750-05:00,-15,-20,57
2021-11-08 23:26:35-05:00,-16,-20,57
2021-11-08 23:26:35.031250-05:00,-16,-20,57
2021-11-08 23:26:35.062500-05:00,-16,-20,58
2021-11-08 23:26:35.093750-05:00,-17,-20,57
2021-11-08 23:26:35.125000-05:00,-17,-20,56
2021-11-08 23:26:35.156250-05:00,-16,-20,57
2021-11-08 23:26:35.187500-05:00,-17,-20,56
2021-11-08 23:26:35.218750-05:00,-17,-20,57
2021-11-08 23:26:35.250000-05:00,-17,-20,57
2021-11-08 23:26:35.281250-05:00,-18,-20,56
2021-11-08 23:26:35.312500-05:00,-16,-20,57
2021-11-08 23:26:35.343750-05:00,-16,-20,57
2021-11-08 23:26:35.375000-05:00,-16,-20,57
2021-11-08 23:26:35.406250-05:00,-16,-20,57
2021-11-08 23:26:35.437500-05:00,-17,-20,57
2021-11-08 23:26:35.468750-05:00,-16,-20,57
2021-11-08 23:26:35.500000-05:00,-17,-21,57
2021-11-08 23:26:35.531250-05:00,-17,-21,57
2021-11-08 23:26:35.562500-05:00,-17,-21,57
2021-11-08 23:26:35.593750-05:00,-16,-20,57
2021-11-08 23:26:35.625000-05:00,-17,-20,57
2021-11-08 23:26:35.656250-05:00,-16,-20,57
2021-11-08 23:26:35.687500-05:00,-17,-20,57
2021-11-08 23:26:35.718750-05:00,-17,-20,57
2021-11-08 23:26:35.750000-05:00,-17,-20,57
2021-11-08 23:26:35.781250-05:00,-17,-20,57
2021-11-08 23:26:35.812500-05:00,-16,-20,57
2021-11-08 23:26:35.843750-05:00,-17,-21,56
2021-11-08 23:26:35.875000-05:00,-17,-20,56
2021-11-08 23:26:35.906250-05:00,-16,-20,56
2021-11-08 23:26:35.937500-05:00,-17,-20,56
2021-11-08 23:26:35.968750-05:00,-17,-20,56
2021-11-08 23:26:36-05:00,-18,-20,57
2021-11-08 23:26:36.031250-05:00,-18,-20,56
2021-11-08 23:26:36.062500-05:00,-17,-20,57
2021-11-08 23:26:36.093750-05:00,-17,-20,57
2021-11-08 23:26:36.125000-05:00,-17,-20,56
2021-11-08 23:26:36.156250-05:00,-17,-21,57
2021-11-08 23:26:36.187500-05:00,-18,-21,56
2021-11-08 23:26:36.218750-05:00,-18,-21,56
2021-11-08 23:26:36.250000-05:00,-18,-20,56
2021-11-08 23:26:36.281250-05:00,-18,-20,57
2021-11-08 23:26:36.312500-05:00,-18,-20,57
2021-11-08 23:26:36.343750-05:00,-18,-20,57
2021-11-08 23:26:36.375000-05:00,-17,-20,57
2021-11-08 23:26:36.406250-05:00,-18,-20,56
2021-11-08 23:26:36.437500-05:00,-18,-21,57
2021-11-08 23:26:36.468750-05:00,-18,-20,57
2021-11-08 23:26:36.500000-05:00,-19,-20,56
2021-11-08 23:26:36.531250-05:00,-19,-20,56
2021-11-08 23:26:36.562500-05:00,-19,-21,56
2021-11-08 23:26:36.593750-05:00,-19,-21,56
2021-11-08 23:26:36.625000-05:00,-19,-21,56
2021-11-08 23:26:36.656250-05:00,-19,-21,56
2021-11-08 23:26:36.687500-05:00,-19,-21,56
2021-11-08 23:26:36.718750-05:00,-19,-21,56
2021-11-08 23:26:36.750000-05:00,-19,-21,56
2021-11-08 23:26:36.781250-05:00,-18,-21,56
2021-11-08 23:26:36.812500-05:00,-18,-21,56
2021-11-08 23:26:36.843750-05:00,-19,-21,56
2021-11-08 23:26:36.875000-05:00,-19,-20,56
2021-11-08 23:26:36.906250-05:00,-19,-21,56
2021-11-08 23:26:36.937500-05:00,-19,-21,56
2021-11-08 23:26:36.968750-05:00,-19,-21,56
2021-11-08 23:26:37-05:00,-19,-21,55
2021-11-08 23:26:37.031250-05:00,-19,-21,56
2021-11-08 23:26:37.062500-05:00,-19,-21,56
2021-11-08 23:26:37.093750-05:00,-19,-21,56
2021-11-08 23:26:37.125000-05:00,-19,-20,56
2021-11-08 23:26:37.156250-05:00,-19,-21,56
2021-11-08 23:26:37.187500-05:00,-19,-21,56
2021-11-08 23:26:37.218750-05:00,-19,-21,57
2021-11-08 23:26:37.250000-05:00,-19,-21,57
2021-11-08 23:26:37.281250-05:00,-19,-21,56
2021-11-08 23:26:37.312500-05:00,-19,-21,56
2021-11-08 23:26:37.343750-05:00,-20,-21,56
2021-11-08 23:26:37.375000-05:00,-20,-21,56
2021-11-08 23:26:37.406250-05:00,-19,-21,56
2021-11-08 23:26:37.437500-05:00,-20,-21,55
2021-11-08 23:26:37.468750-05:00,-20,-21,56
2021-11-08 23:26:37.500000-05:00,-19,-21,55
2021-11-08 23:26:37.531250-05:00,-20,-21,56
2021-11-08 23:26:37.562500-05:00,-19,-21,57
2021-11-08 23:26:37.593750-05:00,-20,-21,56
2021-11-08 23:26:37.625000-05:00,-20,-21,56
2021-11-08 23:26:37.656250-05:00,-19,-21,56
2021-11-08 23:26:37.687500-05:00,-20,-21,56
2021-11-08 23:26:37.718750-05:00,-19,-21,56
2021-11-08 23:26:37.750000-05:00,-19,-21,55
2021-11-08 23:26:37.781250-05:00,-20,-21,55
2021-11-08 23:26:37.812500-05:00,-20,-21,56
2021-11-08 23:26:37.843750-05:00,-20,-21,56
2021-11-08 23:26:37.875000-05:00,-20,-21,55
2021-11-08 23:26:37.906250-05:00,-20,-20,56
2021-11-08 23:26:37.937500-05:00,-20,-21,56
2021-11-08 23:26:37.968750-05:00,-19,-21,56
2021-11-08 23:26:38-05:00,-20,-21,56
2021-11-08 23:26:38.031250-05:00,-19,-21,56
2021-11-08 23:26:38.062500-05:00,-19,-21,56
2021-11-08 23:26:38.093750-05:00,-20,-21,55
2021-11-08 23:26:38.125000-05:00,-20,-21,55
2021-11-08 23:26:38.156250-05:00,-20,-21,56
2021-11-08 23:26:38.187500-05:00,-21,-20,56
2021-11-08 23:26:38.218750-05:00,-20,-21,56
2021-11-08 23:26:38.250000-05:00,-20,-21,56
2021-11-08 23:26:38.281250-05:00,-21,-21,56
2021-11-08 23:26:38.312500-05:00,-20,-21,56
2021-11-08 23:26:38.343750-05:00,-20,-21,56
2021-11-08 23:26:38.375000-05:00,-20,-21,56
2021-11-08 23:26:38.406250-05:00,-20,-21,56
2021-11-08 23:26:38.437500-05:00,-20,-21,56
2021-11-08 23:26:38.468750-05:00,-20,-21,55
2021-11-08 23:26:38.500000-05:00,-20,-21,56
2021-11-08 23:26:38.531250-05:00,-20,-20,55
2021-11-08 23:26:38.562500-05:00,-21,-21,56
2021-11-08 23:26:38.593750-05:00,-21,-21,56
2021-11-08 23:26:38.625000-05:00,-21,-20,56
2021-11-08 23:26:38.656250-05:00,-21,-21,56
2021-11-08 23:26:38.687500-05:00,-21,-21,56
2021-11-08 23:26:38.718750-05:00,-20,-21,56
2021-11-08 23:26:38.750000-05:00,-21,-21,56
2021-11-08 23:26:38.781250-05:00,-20,-21,55
2021-11-08 23:26:38.812500-05:00,-20,-21,56
2021-11-08 23:26:38.843750-05:00,-21,-21,55
2021-11-08 23:26:38.875000-05:00,-21,-21,56
2021-11-08 23:26:38.906250-05:00,-21,-21,56
2021-11-08 23:26:38.937500-05:00,-21,-21,55
2021-11-08 23:26:38.968750-05:00,-20,-21,56
2021-11-08 23:26:39-05:00,-21,-21,55
2021-11-08 23:26:39.031250-05:00,-21,-21,55
2021-11-08 23:26:39.062500-05:00,-20,-21,55
2021-11-08 23:26:39.093750-05:00,-21,-21,55
2021-11-08 23:26:39.125000-05:00,-20,-21,55
2021-11-08 23:26:39.156250-05:00,-21,-21,55
2021-11-08 23:26:39.187500-05:00,-21,-21,56
2021-11-08 23:26:39.218750-05:00,-21,-21,56
2021-11-08 23:26:39.250000-05:00,-21,-21,55
2021-11-08 23:26:39.281250-05:00,-21,-21,56
2021-11-08 23:26:39.312500-05:00,-21,-21,56
2021-11-08 23:26:39.343750-05:00,-21,-21,56
2021-11-08 23:26:39.375000-05:00,-21,-21,55
2021-11-08 23:26:39.406250-05:00,-21,-21,56
2021-11-08 23:26:39.437500-05:00,-21,-21,56
2021-11-08 23:26:39.468750-05:00,-21,-21,56
2021-11-08 23:26:39.500000-05:00,-21,-21,56
2021-11-08 23:26:39.531250-05:00,-21,-20,55
2021-11-08 23:26:39.562500-05:00,-20,-21,55
2021-11-08 23:26:39.593750-05:00,-21,-21,55
2021-11-08 23:26:39.625000-05:00,-21,-21,55
2021-11-08 23:26:39.656250-05:00,-21,-21,56
2021-11-08 23:26:39.687500-05:00,-21,-21,56
2021-11-08 23:26:39.718750-05:00,-21,-20,56
2021-11-08 23:26:39.750000-05:00,-21,-20,56
2021-11-08 23:26:39.781250-05:00,-21,-20,55
2021-11-08 23:26:39.812500-05:00,-21,-20,56
2021-11-08 23:26:39.843750-05:00,-21,-20,56
2021-11-08 23:26:39.875000-05:00,-20,-20,56
2021-11-08 23:26:39.906250-05:00,-21,-20,57
2021-11-08 23:26:39.937500-05:00,-20,-20,56
2021-11-08 23:26:39.968750-05:00,-20,-20,56
2021-11-08 23:26:40-05:00,-21,-20,56
2021-11-08 23:26:40.031250-05:00,-21,-20,55
2021-11-08 23:26:40.062500-05:00,-20,-20,57
2021-11-08 23:26:40.093750-05:00,-20,-20,56
2021-11-08 23:26:40.125000-05:00,-19,-19,56
2021-11-08 23:26:40.156250-05:00,-20,-19,56
2021-11-08 23:26:40.187500-05:00,-20,-19,56
2021-11-08 23:26:40.218750-05:00,-20,-19,57
2021-11-08 23:26:40.250000-05:00,-19,-19,56
2021-11-08 23:26:40.281250-05:00,-19,-19,57
2021-11-08 23:26:40.312500-05:00,-19,-19,57
2021-11-08 23:26:40.343750-05:00,-18,-18,57
2021-11-08 23:26:40.375000-05:00,-18,-18,57
2021-11-08 23:26:40.406250-05:00,-18,-18,57
2021-11-08 23:26:40.437500-05:00,-18,-18,56
2021-11-08 23:26:40.468750-05:00,-18,-18,57
2021-11-08 23:26:40.500000-05:00,-17,-17,57
2021-11-08 23:26:40.531250-05:00,-17,-17,57
2021-11-08 23:26:40.562500-05:00,-18,-17,56
2021-11-08 23:26:40.593750-05:00,-17,-17,57
2021-11-08 23:26:40.625000-05:00,-18,-17,57
2021-11-08 23:26:40.656250-05:00,-17,-18,58
2021-11-08 23:26:40.687500-05:00,-17,-18,58
2021-11-08 23:26:40.718750-05:00,-17,-18,58
2021-11-08 23:26:40.750000-05:00,-17,-17,58
2021-11-08 23:26:40.781250-05:00,-17,-17,58
2021-11-08 23:26:40.812500-05:00,-17,-17,58
2021-11-08 23:26:40.843750-05:00,-18,-17,57
2021-11-08 23:26:40.875000-05:00,-18,-18,57
2021-11-08 23:26:40.906250-05:00,-17,-17,58
2021-11-08 23:26:40.937500-05:00,-18,-18,57
2021-11-08 23:26:40.968750-05:00,-18,-18,57
2021-11-08 23:26:41-05:00,-17,-17,58
2021-11-08 23:26:41.031250-05:00,-17,-18,57
2021-11-08 23:26:41.062500-05:00,-17,-18,58
2021-11-08 23:26:41.093750-05:00,-18,-18,58
2021-11-08 23:26:41.125000-05:00,-17,-18,58
2021-11-08 23:26:41.156250-05:00,-17,-18,58
2021-11-08 23:26:41.187500-05:00,-17,-18,58
2021-11-08 23:26:41.218750-05:00,-17,-18,58
2021-11-08 23:26:41.250000-05:00,-17,-17,57
2021-11-08 23:26:41.281250-05:00,-17,-18,57
2021-11-08 23:26:41.312500-05:00,-17,-18,58
2021-11-08 23:26:41.343750-05:00,-17,-18,57
2021-11-08 23:26:41.375000-05:00,-18,-18,57
2021-11-08 23:26:41.406250-05:00,-17,-18,58
2021-11-08 23:26:41.437500-05:00,-17,-18,58
2021-11-08 23:26:41.468750-05:00,-17,-18,57
2021-11-08 23:26:41.500000-05:00,-17,-18,57
2021-11-08 23:26:41.531250-05:00,-17,-18,58
2021-11-08 23:26:41.562500-05:00,-17,-18,58
2021-11-08 23:26:41.593750-05:00,-17,-18,58
2021-11-08 23:26:41.625000-05:00,-17,-18,58
2021-11-08 23:26:41.656250-05:00,-17,-18,57
2021-11-08 23:26:41.687500-05:00,-17,-18,57
2021-11-08 23:26:41.718750-05:00,-17,-18,58
2021-11-08 23:26:41.750000-05:00,-17,-18,57
2021-11-08 23:26:41.781250-05:00,-17,-18,57
2021-11-08 23:26:41.812500-05:00,-17,-17,57
2021-11-08 23:26:41.843750-05:00,-18,-18,57
2021-11-08 23:26:41.875000-05:00,-18,-18,57
2021-11-08 23:26:41.906250-05:00,-17,-18,59
2021-11-08 23:26:41.937500-05:00,-18,-18,59
2021-11-08 23:26:41.968750-05:00,-17,-18,60
2021-11-08 23:26:42-05:00,-16,-16,60
2021-11-08 23:26:42.031250-05:00,-16,-15,62
2021-11-08 23:26:42.062500-05:00,-16,-13,63
2021-11-08 23:26:42.093750-05:00,-16,-14,64
2021-11-08 23:26:42.125000-05:00,-14,-13,65
2021-11-08 23:26:42.156250-05:00,-14,-14,65
2021-11-08 23:26:42.187500-05:00,-14,-15,64
2021-11-08 23:26:42.218750-05:00,-14,-15,63
2021-11-08 23:26:42.250000-05:00,-14,-17,60
2021-11-08 23:26:42.281250-05:00,-13,-16,55
2021-11-08 23:26:42.312500-05:00,-14,-15,54
2021-11-08 23:26:42.343750-05:00,-13,-14,55
2021-11-08 23:26:42.375000-05:00,-13,-14,55
2021-11-08 23:26:42.406250-05:00,-13,-13,56
2021-11-08 23:26:42.437500-05:00,-13,-13,56
2021-11-08 23:26:42.468750-05:00,-13,-12,60
2021-11-08 23:26:42.500000-05:00,-11,-11,61
2021-11-08 23:26:42.531250-05:00,-11,-10,59
2021-11-08 23:26:42.562500-05:00,-7,-9,59
2021-11-08 23:26:42.593750-05:00,-8,-8,59
2021-11-08 23:26:42.625000-05:00,-10,-10,58
2021-11-08 23:26:42.656250-05:00,-9,-10,59
2021-11-08 23:26:42.687500-05:00,-7,-10,60
2021-11-08 23:26:42.718750-05:00,-5,-10,62
2021-11-08 23:26:42.750000-05:00,-5,-11,62
2021-11-08 23:26:42.781250-05:00,-4,-12,63
2021-11-08 23:26:42.812500-05:00,-5,-12,62
2021-11-08 23:26:42.843750-05:00,-6,-10,60
2021-11-08 23:26:42.875000-05:00,-5,-10,59
2021-11-08 23:26:42.906250-05:00,-4,-9,60
2021-11-08 23:26:42.937500-05:00,-5,-9,60
2021-11-08 23:26:42.968750-05:00,-4,-9,62
2021-11-08 23:26:43-05:00,-4,-12,65
2021-11-08 23:26:43.031250-05:00,-4,-12,64
2021-11-08 23:26:43.062500-05:00,-5,-11,63
2021-11-08 23:26:43.093750-05:00,-5,-11,62
2021-11-08 23:26:43.125000-05:00,-5,-9,61
2021-11-08 23:26:43.156250-05:00,-5,-10,60
2021-11-08 23:26:43.187500-05:00,-5,-9,61
2021-11-08 23:26:43.218750-05:00,-6,-10,61
2021-11-08 23:26:43.250000-05:00,-6,-9,61
2021-11-08 23:26:43.281250-05:00,-5,-9,61
2021-11-08 23:26:43.312500-05:00,-5,-9,61
2021-11-08 23:26:43.343750-05:00,-6,-10,62
2021-11-08 23:26:43.375000-05:00,-6,-10,62
2021-11-08 23:26:43.406250-05:00,-5,-11,62
2021-11-08 23:26:43.437500-05:00,-6,-10,62
2021-11-08 23:26:43.468750-05:00,-6,-10,61
2021-11-08 23:26:43.500000-05:00,-7,-10,61
2021-11-08 23:26:43.531250-05:00,-7,-10,61
2021-11-08 23:26:43.562500-05:00,-6,-11,62
2021-11-08 23:26:43.593750-05:00,-6,-10,62
2021-11-08 23:26:43.625000-05:00,-7,-11,61
2021-11-08 23:26:43.656250-05:00,-7,-10,61
2021-11-08 23:26:43.687500-05:00,-7,-10,61
2021-11-08 23:26:43.718750-05:00,-7,-10,61
2021-11-08 23:26:43.750000-05:00,-6,-10,62
2021-11-08 23:26:43.781250-05:00,-6,-10,61
2021-11-08 23:26:43.812500-05:00,-7,-9,61
2021-11-08 23:26:43.843750-05:00,-6,-9,60
2021-11-08 23:26:43.875000-05:00,-6,-8,61
2021-11-08 23:26:43.906250-05:00,-6,-9,61
2021-11-08 23:26:43.937500-05:00,-6,-10,61
2021-11-08 23:26:43.968750-05:00,-6,-9,62
2021-11-08 23:26:44-05:00,-6,-9,62
2021-11-08 23:26:44.031250-05:00,-7,-9,62
2021-11-08 23:26:44.062500-05:00,-7,-9,62
2021-11-08 23:26:44.093750-05:00,-6,-9,62
2021-11-08 23:26:44.125000-05:00,-6,-9,62
2021-11-08 23:26:44.156250-05:00,-6,-9,61
2021-11-08 23:26:44.187500-05:00,-7,-9,62
2021-11-08 23:26:44.218750-05:00,-7,-9,61
2021-11-08 23:26:44.250000-05:00,-7,-10,61
2021-11-08 23:26:44.281250-05:00,-7,-10,62
2021-11-08 23:26:44.312500-05:00,-7,-9,61
2021-11-08 23:26:44.343750-05:00,-7,-9,61
2021-11-08 23:26:44.375000-05:00,-6,-9,61
2021-11-08 23:26:44.406250-05:00,-7,-9,61
2021-11-08 23:26:44.437500-05:00,-7,-9,62
2021-11-08 23:26:44.468750-05:00,-7,-9,62
2021-11-08 23:26:44.500000-05:00,-7,-9,62
2021-11-08 23:26:44.531250-05:00,-7,-10,61
2021-11-08 23:26:44.562500-05:00,-7,-9,61
2021-11-08 23:26:44.593750-05:00,-7,-9,61
2021-11-08 23:26:44.625000-05:00,-7,-9,60
2021-11-08 23:26:44.656250-05:00,-8,-9,61
2021-11-08 23:26:44.687500-05:00,-7,-9,62
2021-11-08 23:26:44.718750-05:00,-7,-9,62
2021-11-08 23:26:44.750000-05:00,-7,-9,61
2021-11-08 23:26:44.781250-05:00,-7,-9,61
2021-11-08 23:26:44.812500-05:00,-8,-9,61
2021-11-08 23:26:44.843750-05:00,-7,-9,61
2021-11-08 23:26:44.875000-05:00,-7,-9,61
2021-11-08 23:26:44.906250-05:00,-8,-9,61
2021-11-08 23:26:44.937500-05:00,-8,-9,61
2021-11-08 23:26:44.968750-05:00,-8,-10,62
2021-11-08 23:26:45-05:00,-8,-10,62
2021-11-08 23:26:45.031250-05:00,-8,-10,61
2021-11-08 23:26:45.062500-05:00,-8,-10,60
2021-11-08 23:26:45.093750-05:00,-8,-10,61
2021-11-08 23:26:45.125000-05:00,-9,-10,60
2021-11-08 23:26:45.156250-05:00,-9,-10,61
2021-11-08 23:26:45.187500-05:00,-9,-10,61
2021-11-08 23:26:45.218750-05:00,-9,-10,61
2021-11-08 23:26:45.250000-05:00,-8,-10,61
2021-11-08 23:26:45.281250-05:00,-10,-10,60
2021-11-08 23:26:45.312500-05:00,-10,-10,61
2021-11-08 23:26:45.343750-05:00,-10,-10,61
2021-11-08 23:26:45.375000-05:00,-10,-10,61
2021-11-08 23:26:45.406250-05:00,-9,-9,62
2021-11-08 23:26:45.437500-05:00,-10,-10,61
2021-11-08 23:26:45.468750-05:00,-10,-10,61
2021-11-08 23:26:45.500000-05:00,-11,-10,61
2021-11-08 23:26:45.531250-05:00,-12,-10,61
2021-11-08 23:26:45.562500-05:00,-14,-12,60
2021-11-08 23:26:45.593750-05:00,-15,-11,59
2021-11-08 23:26:45.625000-05:00,-14,-11,59
2021-11-08 23:26:45.656250-05:00,-14,-11,58
2021-11-08 23:26:45.687500-05:00,-14,-9,59
2021-11-08 23:26:45.718750-05:00,-16,-10,59
2021-11-08 23:26:45.750000-05:00,-16,-9,59
2021-11-08 23:26:45.781250-05:00,-16,-7,61
2021-11-08 23:26:45.812500-05:00,-15,-7,62
2021-11-08 23:26:45.843750-05:00,-14,-7,61
2021-11-08 23:26:45.875000-05:00,-14,-8,62
2021-11-08 23:26:45.906250-05:00,-15,-7,63
2021-11-08 23:26:45.937500-05:00,-17,-8,63
2021-11-08 23:26:45.968750-05:00,-17,-8,62
2021-11-08 23:26:46-05:00,-20,-7,60
2021-11-08 23:26:46.031250-05:00,-20,-7,59
2021-11-08 23:26:46.062500-05:00,-20,-9,58
2021-11-08 23:26:46.093750-05:00,-19,-9,58
2021-11-08 23:26:46.125000-05:00,-18,-10,58
2021-11-08 23:26:46.156250-05:00,-19,-9,58
2021-11-08 23:26:46.187500-05:00,-19,-9,59
2021-11-08 23:26:46.218750-05:00,-21,-8,59
2021-11-08 23:26:46.250000-05:00,-21,-8,59
2021-11-08 23:26:46.281250-05:00,-20,-7,60
2021-11-08 23:26:46.312500-05:00,-20,-7,60
2021-11-08 23:26:46.343750-05:00,-19,-8,60
2021-11-08 23:26:46.375000-05:00,-18,-8,60
2021-11-08 23:26:46.406250-05:00,-18,-8,60
2021-11-08 23:26:46.437500-05:00,-18,-9,59
2021-11-08 23:26:46.468750-05:00,-19,-9,59
2021-11-08 23:26:46.500000-05:00,-19,-9,58
2021-11-08 23:26:46.531250-05:00,-19,-9,58
2021-11-08 23:26:46.562500-05:00,-20,-9,58
2021-11-08 23:26:46.593750-05:00,-20,-8,59
2021-11-08 23:26:46.625000-05:00,-20,-8,59
2021-11-08 23:26:46.656250-05:00,-19,-8,60
2021-11-08 23:26:46.687500-05:00,-19,-8,60
2021-11-08 23:26:46.718750-05:00,-20,-8,60
2021-11-08 23:26:46.750000-05:00,-20,-8,60
2021-11-08 23:26:46.781250-05:00,-19,-9,60
2021-11-08 23:26:46.812500-05:00,-19,-8,58
2021-11-08 23:26:46.843750-05:00,-19,-8,58
2021-11-08 23:26:46.875000-05:00,-20,-9,58
2021-11-08 23:26:46.906250-05:00,-20,-9,59
2021-11-08 23:26:46.937500-05:00,-20,-9,59
2021-11-08 23:26:46.968750-05:00,-20,-8,59
2021-11-08 23:26:47-05:00,-20,-8,59
2021-11-08 23:26:47.031250-05:00,-20,-8,59
2021-11-08 23:26:47.062500-05:00,-20,-9,59
2021-11-08 23:26:47.093750-05:00,-20,-8,59
2021-11-08 23:26:47.125000-05:00,-20,-9,59
2021-11-08 23:26:47.156250-05:00,-19,-9,59
2021-11-08 23:26:47.187500-05:00,-20,-9,59
2021-11-08 23:26:47.218750-05:00,-20,-8,59
2021-11-08 23:26:47.250000-05:00,-20,-8,59
2021-11-08 23:26:47.281250-05:00,-20,-8,59
2021-11-08 23:26:47.312500-05:00,-20,-8,59
2021-11-08 23:26:47.343750-05:00,-20,-9,59
2021-11-08 23:26:47.375000-05:00,-20,-8,59
2021-11-08 23:26:47.406250-05:00,-20,-8,59
2021-11-08 23:26:47.437500-05:00,-20,-8,59
2021-11-08 23:26:47.468750-05:00,-20,-9,59
2021-11-08 23:26:47.500000-05:00,-20,-9,59
2021-11-08 23:26:47.531250-05:00,-20,-8,59
2021-11-08 23:26:47.562500-05:00,-20,-8,59
2021-11-08 23:26:47.593750-05:00,-20,-9,59
2021-11-08 23:26:47.625000-05:00,-20,-8,59
2021-11-08 23:26:47.656250-05:00,-20,-8,59
2021-11-08 23:26:47.687500-05:00,-20,-8,59
2021-11-08 23:26:47.718750-05:00,-21,-9,59
2021-11-08 23:26:47.750000-05:00,-20,-9,59
2021-11-08 23:26:47.781250-05:00,-20,-9,58
2021-11-08 23:26:47.812500-05:00,-20,-8,58
2021-11-08 23:26:47.843750-05:00,-20,-8,59
2021-11-08 23:26:47.875000-05:00,-20,-9,59
2021-11-08 23:26:47.906250-05:00,-21,-9,59
2021-11-08 23:26:47.937500-05:00,-21,-9,59
2021-11-08 23:26:47.968750-05:00,-20,-8,59
2021-11-08 23:26:48-05:00,-20,-8,59
2021-11-08 23:26:48.031250-05:00,-21,-9,59
2021-11-08 23:26:48.062500-05:00,-20,-9,59
2021-11-08 23:26:48.093750-05:00,-20,-9,59
2021-11-08 23:26:48.125000-05:00,-20,-9,59
2021-11-08 23:26:48.156250-05:00,-20,-10,59
2021-11-08 23:26:48.187500-05:00,-20,-9,58
2021-11-08 23:26:48.218750-05:00,-20,-9,58
2021-11-08 23:26:48.250000-05:00,-20,-9,59
2021-11-08 23:26:48.281250-05:00,-21,-8,59
2021-11-08 23:26:48.312500-05:00,-20,-9,59
2021-11-08 23:26:48.343750-05:00,-19,-9,59
2021-11-08 23:26:48.375000-05:00,-19,-9,59
2021-11-08 23:26:48.406250-05:00,-19,-9,59
2021-11-08 23:26:48.437500-05:00,-19,-9,59
2021-11-08 23:26:48.468750-05:00,-19,-9,59
2021-11-08 23:26:48.500000-05:00,-19,-8,59
2021-11-08 23:26:48.531250-05:00,-19,-8,59
2021-11-08 23:26:48.562500-05:00,-20,-9,59
2021-11-08 23:26:48.593750-05:00,-20,-9,59
2021-11-08 23:26:48.625000-05:00,-20,-8,59
2021-11-08 23:26:48.656250-05:00,-17,-10,61
2021-11-08 23:26:48.687500-05:00,-17,-9,60
2021-11-08 23:26:48.718750-05:00,-17,-9,61
2021-11-08 23:26:48.750000-05:00,-16,-9,59
2021-11-08 23:26:48.781250-05:00,-20,-9,58
2021-11-08 23:26:48.812500-05:00,-19,-9,57
2021-11-08 23:26:48.843750-05:00,-17,-10,60
2021-11-08 23:26:48.875000-05:00,-17,-9,60
2021-11-08 23:26:48.906250-05:00,-14,-9,63
2021-11-08 23:26:48.937500-05:00,-22,-8,59
2021-11-08 23:26:48.968750-05:00,-18,-8,60
2021-11-08 23:26:49-05:00,-17,-8,60
2021-11-08 23:26:49.031250-05:00,-15,-8,60
2021-11-08 23:26:49.062500-05:00,-17,-9,59
2021-11-08 23:26:49.093750-05:00,-21,-7,58
2021-11-08 23:26:49.125000-05:00,-23,-7,57
2021-11-08 23:26:49.156250-05:00,-22,-8,57
2021-11-08 23:26:49.187500-05:00,-24,-8,56
2021-11-08 23:26:49.218750-05:00,-24,-9,61
2021-11-08 23:26:49.250000-05:00,-23,-8,59
2021-11-08 23:26:49.281250-05:00,-24,-6,59
2021-11-08 23:26:49.312500-05:00,-20,-6,59
2021-11-08 23:26:49.343750-05:00,-19,-5,59
2021-11-08 23:26:49.375000-05:00,-20,-6,58
2021-11-08 23:26:49.406250-05:00,-20,-7,59
2021-11-08 23:26:49.437500-05:00,-20,-8,60
2021-11-08 23:26:49.468750-05:00,-20,-8,60
2021-11-08 23:26:49.500000-05:00,-19,-8,60
2021-11-08 23:26:49.531250-05:00,-19,-7,59
2021-11-08 23:26:49.562500-05:00,-18,-7,59
2021-11-08 23:26:49.593750-05:00,-19,-8,59
2021-11-08 23:26:49.625000-05:00,-18,-8,59
2021-11-08 23:26:49.656250-05:00,-19,-8,59
2021-11-08 23:26:49.687500-05:00,-19,-8,59
2021-11-08 23:26:49.718750-05:00,-19,-8,59
2021-11-08 23:26:49.750000-05:00,-19,-7,59
2021-11-08 23:26:49.781250-05:00,-19,-8,59
2021-11-08 23:26:49.812500-05:00,-20,-7,59
2021-11-08 23:26:49.843750-05:00,-19,-7,59
2021-11-08 23:26:49.875000-05:00,-19,-7,59
2021-11-08 23:26:49.906250-05:00,-19,-7,59
2021-11-08 23:26:49.937500-05:00,-19,-7,59
2021-11-08 23:26:49.968750-05:00,-20,-7,59
2021-11-08 23:26:50-05:00,-19,-7,59
2021-11-08 23:26:50.031250-05:00,-20,-7,59
2021-11-08 23:26:50.062500-05:00,-20,-6,59
2021-11-08 23:26:50.093750-05:00,-21,-6,59
2021-11-08 23:26:50.125000-05:00,-21,-7,59
2021-11-08 23:26:50.156250-05:00,-21,-7,59
2021-11-08 23:26:50.187500-05:00,-21,-7,60
2021-11-08 23:26:50.218750-05:00,-20,-7,59
2021-11-08 23:26:50.250000-05:00,-19,-7,59
2021-11-08 23:26:50.281250-05:00,-16,-9,62
2021-11-08 23:26:50.312500-05:00,-8,-5,58
2021-11-08 23:26:50.343750-05:00,-13,-14,59
2021-11-08 23:26:50.375000-05:00,-16,-10,60
2021-11-08 23:26:50.406250-05:00,-17,-10,61
2021-11-08 23:26:50.437500-05:00,-13,-3,61
2021-11-08 23:26:50.468750-05:00,-15,-7,59
2021-11-08 23:26:50.500000-05:00,-15,-7,59
2021-11-08 23:26:50.531250-05:00,-19,-8,58
2021-11-08 23:26:50.562500-05:00,-15,-6,60
2021-11-08 23:26:50.593750-05:00,-14,-6,62
2021-11-08 23:26:50.625000-05:00,-13,-8,62
2021-11-08 23:26:50.656250-05:00,-13,-8,61
2021-11-08 23:26:50.687500-05:00,-15,-5,61
2021-11-08 23:26:50.718750-05:00,-14,-6,60
2021-11-08 23:26:50.750000-05:00,-14,-4,61
2021-11-08 23:26:50.781250-05:00,-14,-5,60
2021-11-08 23:26:50.812500-05:00,-12,-6,61
2021-11-08 23:26:50.843750-05:00,-12,-6,61
2021-11-08 23:26:50.875000-05:00,-13,-5,61
2021-11-08 23:26:50.906250-05:00,-12,-5,61
2021-11-08 23:26:50.937500-05:00,-12,-6,61
2021-11-08 23:26:50.968750-05:00,-12,-4,61
2021-11-08 23:26:51-05:00,-12,-5,61
2021-11-08 23:26:51.031250-05:00,-13,-4,61
2021-11-08 23:26:51.062500-05:00,-12,-6,60
2021-11-08 23:26:51.093750-05:00,-12,-10,56
2021-11-08 23:26:51.125000-05:00,-11,6,68
2021-11-08 23:26:51.156250-05:00,-9,7,64
2021-11-08 23:26:51.187500-05:00,-9,2,63
2021-11-08 23:26:51.218750-05:00,-10,3,63
2021-11-08 23:26:51.250000-05:00,-13,3,61
2021-11-08 23:26:51.281250-05:00,-14,3,62
2021-11-08 23:26:51.312500-05:00,-14,3,66
2021-11-08 23:26:51.343750-05:00,-15,6,75
2021-11-08 23:26:51.375000-05:00,-8,4,63
2021-11-08 23:26:51.406250-05:00,-3,-3,64
2021-11-08 23:26:51.437500-05:00,22,-3,58
2021-11-08 23:26:51.468750-05:00,-13,-4,55
2021-11-08 23:26:51.500000-05:00,-16,-4,54
2021-11-08 23:26:51.531250-05:00,-15,-6,59
2021-11-08 23:26:51.562500-05:00,-17,-7,61
2021-11-08 23:26:51.593750-05:00,-16,-8,62
2021-11-08 23:26:51.625000-05:00,-14,-6,62
2021-11-08 23:26:51.656250-05:00,-13,-5,60
2021-11-08 23:26:51.687500-05:00,-11,-6,57
2021-11-08 23:26:51.718750-05:00,-9,-7,56
2021-11-08 23:26:51.750000-05:00,-8,-8,56
2021-11-08 23:26:51.781250-05:00,-8,-12,55
2021-11-08 23:26:51.812500-05:00,-9,-15,54
2021-11-08 23:26:51.843750-05:00,-5,-18,56
2021-11-08 23:26:51.875000-05:00,-6,-19,55
2021-11-08 23:26:51.906250-05:00,-7,-20,55
2021-11-08 23:26:51.937500-05:00,-8,-27,64
2021-11-08 23:26:51.968750-05:00,-10,-30,66
2021-11-08 23:26:52-05:00,-11,-31,66
2021-11-08 23:26:52.031250-05:00,-9,-30,67
2021-11-08 23:26:52.062500-05:00,-5,-26,66
2021-11-08 23:26:52.093750-05:00,-7,-21,60
2021-11-08 23:26:52.125000-05:00,-11,-15,55
2021-11-08 23:26:52.156250-05:00,-12,-13,57
2021-11-08 23:26:52.187500-05:00,-15,-12,56
2021-11-08 23:26:52.218750-05:00,-20,-13,57
2021-11-08 23:26:52.250000-05:00,-19,-14,58
2021-11-08 23:26:52.281250-05:00,-18,-17,62
2021-11-08 23:26:52.312500-05:00,-19,-18,63
2021-11-08 23:26:52.343750-05:00,-17,-18,61
2021-11-08 23:26:52.375000-05:00,-17,-19,61
2021-11-08 23:26:52.406250-05:00,-18,-20,61
2021-11-08 23:26:52.437500-05:00,-17,-22,65
2021-11-08 23:26:52.468750-05:00,-18,-21,62
2021-11-08 23:26:52.500000-05:00,-19,-20,62
2021-11-08 23:26:52.531250-05:00,-20,-19,61
2021-11-08 23:26:52.562500-05:00,-26,-17,58
2021-11-08 23:26:52.593750-05:00,-39,-34,79
2021-11-08 23:26:52.625000-05:00,-43,-43,81
2021-11-08 23:26:52.656250-05:00,-49,-53,75
2021-11-08 23:26:52.687500-05:00,-48,-51,73
2021-11-08 23:26:52.718750-05:00,-47,-56,81
2021-11-08 23:26:52.750000-05:00,-48,-63,85
2021-11-08 23:26:52.781250-05:00,-55,-70,74
2021-11-08 23:26:52.812500-05:00,-47,-61,59
2021-11-08 23:26:52.843750-05:00,-40,-54,51
2021-11-08 23:26:52.875000-05:00,-35,-48,40
2021-11-08 23:26:52.906250-05:00,-34,-45,29
2021-11-08 23:26:52.937500-05:00,-21,-30,10
2021-11-08 23:26:52.968750-05:00,-14,-25,4
2021-11-08 23:26:53-05:00,-6,-17,-3
2021-11-08 23:26:53.031250-05:00,4,-18,5
2021-11-08 23:26:53.062500-05:00,7,-17,7
2021-11-08 23:26:53.093750-05:00,8,-7,5
2021-11-08 23:26:53.125000-05:00,3,-15,21
2021-11-08 23:26:53.156250-05:00,-3,-48,58
2021-11-08 23:26:53.187500-05:00,-4,-57,57
2021-11-08 23:26:53.218750-05:00,-3,-60,43
2021-11-08 23:26:53.250000-05:00,-20,-52,45
2021-11-08 23:26:53.281250-05:00,-33,-51,49
2021-11-08 23:26:53.312500-05:00,-47,-41,32
2021-11-08 23:26:53.343750-05:00,-43,-36,24
2021-11-08 23:26:53.375000-05:00,-34,-29,18
2021-11-08 23:26:53.406250-05:00,-26,-30,18
2021-11-08 23:26:53.437500-05:00,-26,-41,24
2021-11-08 23:26:53.468750-05:00,-37,-66,27
2021-11-08 23:26:53.500000-05:00,-35,-76,25
2021-11-08 23:26:53.531250-05:00,-30,-87,20
2021-11-08 23:26:53.562500-05:00,-31,-115,18
2021-11-08 23:26:53.593750-05:00,-26,-120,33
2021-11-08 23:26:53.625000-05:00,-26,-102,29
2021-11-08 23:26:53.656250-05:00,-24,-101,16
2021-11-08 23:26:53.687500-05:00,-15,-93,7
2021-11-08 23:26:53.718750-05:00,-11,-83,8
2021-11-08 23:26:53.750000-05:00,-4,-59,15
2021-11-08 23:26:53.781250-05:00,-5,-50,14
2021-11-08 23:26:53.812500-05:00,-7,-43,9
2021-11-08 23:26:53.843750-05:00,-8,-43,5
2021-11-08 23:26:53.875000-05:00,-10,-40,2
2021-11-08 23:26:53.906250-05:00,-11,-40,4
2021-11-08 23:26:53.937500-05:00,-12,-40,8
2021-11-08 23:26:53.968750-05:00,-14,-48,17
2021-11-08 23:26:54-05:00,-17,-54,20
2021-11-08 23:26:54.031250-05:00,-16,-63,20
2021-11-08 23:26:54.062500-05:00,-16,-67,14
2021-11-08 23:26:54.093750-05:00,-13,-64,-2
2021-11-08 23:26:54.125000-05:00,-16,-59,7
2021-11-08 23:26:54.156250-05:00,-15,-55,12
2021-11-08 23:26:54.187500-05:00,-20,-62,11
2021-11-08 23:26:54.218750-05:00,-17,-67,10
2021-11-08 23:26:54.250000-05:00,-18,-84,13
2021-11-08 23:26:54.281250-05:00,-18,-79,15
2021-11-08 23:26:54.312500-05:00,-15,-54,13
2021-11-08 23:26:54.343750-05:00,-13,-42,18
2021-11-08 23:26:54.375000-05:00,-14,-44,21
2021-11-08 23:26:54.406250-05:00,-16,-51,19
2021-11-08 23:26:54.437500-05:00,-17,-58,18
2021-11-08 23:26:54.468750-05:00,-12,-68,21
2021-11-08 23:26:54.500000-05:00,-12,-74,22
2021-11-08 23:26:54.531250-05:00,-10,-86,22
2021-11-08 23:26:54.562500-05:00,-13,-92,17
2021-11-08 23:26:54.593750-05:00,-14,-105,17
2021-11-08 23:26:54.625000-05:00,-17,-124,19
2021-11-08 23:26:54.656250-05:00,-15,-105,15
2021-11-08 23:26:54.687500-05:00,-12,-92,1
2021-11-08 23:26:54.718750-05:00,-9,-90,1
2021-11-08 23:26:54.750000-05:00,-5,-82,2
2021-11-08 23:26:54.781250-05:00,-8,-60,1
2021-11-08 23:26:54.812500-05:00,-8,-50,0
2021-11-08 23:26:54.843750-05:00,-7,-40,-2
2021-11-08 23:26:54.875000-05:00,-8,-39,-4
2021-11-08 23:26:54.906250-05:00,-12,-40,-6
2021-11-08 23:26:54.937500-05:00,-13,-44,-6
2021-11-08 23:26:54.968750-05:00,-12,-56,-6
2021-11-08 23:26:55-05:00,-16,-68,-10
2021-11-08 23:26:55.031250-05:00,-20,-70,-11
2021-11-08 23:26:55.062500-05:00,-18,-60,-5
2021-11-08 23:26:55.093750-05:00,-16,-63,-3
2021-11-08 23:26:55.125000-05:00,-23,-66,2
2021-11-08 23:26:55.156250-05:00,-24,-63,14
2021-11-08 23:26:55.187500-05:00,-20,-61,11
2021-11-08 23:26:55.218750-05:00,-12,-68,2
2021-11-08 23:26:55.250000-05:00,-9,-76,2
2021-11-08 23:26:55.281250-05:00,-10,-89,12
2021-11-08 23:26:55.312500-05:00,-12,-84,19
2021-11-08 23:26:55.343750-05:00,-16,-57,23
2021-11-08 23:26:55.375000-05:00,-17,-40,22
2021-11-08 23:26:55.406250-05:00,-15,-44,23
2021-11-08 23:26:55.437500-05:00,-11,-53,19
2021-11-08 23:26:55.468750-05:00,-12,-59,16
2021-11-08 23:26:55.500000-05:00,-17,-74,16
2021-11-08 23:26:55.531250-05:00,-19,-81,20
2021-11-08 23:26:55.562500-05:00,-20,-82,17
2021-11-08 23:26:55.593750-05:00,-18,-81,13
2021-11-08 23:26:55.625000-05:00,-12,-92,10
2021-11-08 23:26:55.656250-05:00,-15,-114,14
2021-11-08 23:26:55.687500-05:00,-20,-120,11
2021-11-08 23:26:55.718750-05:00,-16,-91,0
2021-11-08 23:26:55.750000-05:00,-12,-87,-2
2021-11-08 23:26:55.781250-05:00,-3,-83,0
2021-11-08 23:26:55.812500-05:00,-3,-77,-1
2021-11-08 23:26:55.843750-05:00,-6,-61,-4
2021-11-08 23:26:55.875000-05:00,-7,-48,-4
2021-11-08 23:26:55.906250-05:00,-7,-44,-4
2021-11-08 23:26:55.937500-05:00,-9,-41,-5
2021-11-08 23:26:55.968750-05:00,-12,-41,-6
2021-11-08 23:26:56-05:00,-14,-44,-9
2021-11-08 23:26:56.031250-05:00,-15,-52,-9
2021-11-08 23:26:56.062500-05:00,-15,-56,-11
2021-11-08 23:26:56.093750-05:00,-21,-61,-8
2021-11-08 23:26:56.125000-05:00,-21,-60,-6
2021-11-08 23:26:56.156250-05:00,-21,-69,-2
2021-11-08 23:26:56.187500-05:00,-21,-74,0
2021-11-08 23:26:56.218750-05:00,-24,-76,11
2021-11-08 23:26:56.250000-05:00,-20,-79,13
2021-11-08 23:26:56.281250-05:00,-16,-82,9
2021-11-08 23:26:56.312500-05:00,-8,-87,4
2021-11-08 23:26:56.343750-05:00,-7,-85,5
2021-11-08 23:26:56.375000-05:00,-9,-71,20
2021-11-08 23:26:56.406250-05:00,-12,-56,25
2021-11-08 23:26:56.437500-05:00,-17,-36,20
2021-11-08 23:26:56.468750-05:00,-16,-37,17
2021-11-08 23:26:56.500000-05:00,-15,-38,13
2021-11-08 23:26:56.531250-05:00,-15,-47,11
2021-11-08 23:26:56.562500-05:00,-16,-56,13
2021-11-08 23:26:56.593750-05:00,-22,-76,18
2021-11-08 23:26:56.625000-05:00,-24,-77,18
2021-11-08 23:26:56.656250-05:00,-22,-75,12
2021-11-08 23:26:56.687500-05:00,-17,-88,6
2021-11-08 23:26:56.718750-05:00,-16,-102,7
2021-11-08 23:26:56.750000-05:00,-18,-128,8
2021-11-08 23:26:56.781250-05:00,-17,-117,4
2021-11-08 23:26:56.812500-05:00,-11,-92,-2
2021-11-08 23:26:56.843750-05:00,-7,-89,-1
2021-11-08 23:26:56.875000-05:00,-4,-88,-3
2021-11-08 23:26:56.906250-05:00,-9,-75,-6
2021-11-08 23:26:56.937500-05:00,-9,-66,-6
2021-11-08 23:26:56.968750-05:00,-10,-49,-4
2021-11-08 23:26:57-05:00,-10,-43,-4
2021-11-08 23:26:57.031250-05:00,-10,-36,-5
2021-11-08 23:26:57.062500-05:00,-9,-35,-6
2021-11-08 23:26:57.093750-05:00,-10,-35,-9
2021-11-08 23:26:57.125000-05:00,-13,-40,-10
2021-11-08 23:26:57.156250-05:00,-17,-46,-8
2021-11-08 23:26:57.187500-05:00,-31,-67,-6
2021-11-08 23:26:57.218750-05:00,-34,-66,-5
2021-11-08 23:26:57.250000-05:00,-33,-59,0
2021-11-08 23:26:57.281250-05:00,-29,-64,5
2021-11-08 23:26:57.312500-05:00,-22,-70,9
2021-11-08 23:26:57.343750-05:00,-23,-73,13
2021-11-08 23:26:57.375000-05:00,-22,-75,16
2021-11-08 23:26:57.406250-05:00,-11,-77,14
2021-11-08 23:26:57.437500-05:00,-4,-79,14
2021-11-08 23:26:57.468750-05:00,-3,-77,14
2021-11-08 23:26:57.500000-05:00,-3,-68,18
2021-11-08 23:26:57.531250-05:00,-7,-47,19
2021-11-08 23:26:57.562500-05:00,-11,-39,17
2021-11-08 23:26:57.593750-05:00,-14,-40,18
2021-11-08 23:26:57.625000-05:00,-19,-46,16
2021-11-08 23:26:57.656250-05:00,-21,-51,15
2021-11-08 23:26:57.687500-05:00,-21,-66,16
2021-11-08 23:26:57.718750-05:00,-20,-74,17
2021-11-08 23:26:57.750000-05:00,-17,-79,14
2021-11-08 23:26:57.781250-05:00,-14,-81,12
2021-11-08 23:26:57.812500-05:00,-13,-81,10
2021-11-08 23:26:57.843750-05:00,-11,-94,4
2021-11-08 23:26:57.875000-05:00,-12,-110,5
2021-11-08 23:26:57.906250-05:00,-16,-113,7
2021-11-08 23:26:57.937500-05:00,-16,-93,3
2021-11-08 23:26:57.968750-05:00,-11,-84,-6
2021-11-08 23:26:58-05:00,-9,-74,-6
2021-11-08 23:26:58.031250-05:00,-10,-71,-5
2021-11-08 23:26:58.062500-05:00,-13,-58,-2
2021-11-08 23:26:58.093750-05:00,-11,-50,-1
2021-11-08 23:26:58.125000-05:00,-7,-40,-3
2021-11-08 23:26:58.156250-05:00,-7,-38,-4
2021-11-08 23:26:58.187500-05:00,-7,-37,-6
2021-11-08 23:26:58.218750-05:00,-8,-42,-7
2021-11-08 23:26:58.250000-05:00,-7,-48,-8
2021-11-08 23:26:58.281250-05:00,-10,-67,-10
2021-11-08 23:26:58.312500-05:00,-12,-74,-11
2021-11-08 23:26:58.343750-05:00,-19,-74,-13
2021-11-08 23:26:58.375000-05:00,-18,-73,-11
2021-11-08 23:26:58.406250-05:00,-14,-85,-3
2021-11-08 23:26:58.437500-05:00,-21,-89,9
2021-11-08 23:26:58.468750-05:00,-25,-85,13
2021-11-08 23:26:58.500000-05:00,-21,-80,4
2021-11-08 23:26:58.531250-05:00,-17,-80,1
2021-11-08 23:26:58.562500-05:00,-6,-79,4
2021-11-08 23:26:58.593750-05:00,-2,-77,8
2021-11-08 23:26:58.625000-05:00,-2,-66,16
2021-11-08 23:26:58.656250-05:00,-7,-52,22
2021-11-08 23:26:58.687500-05:00,-9,-48,23
2021-11-08 23:26:58.718750-05:00,-12,-41,17
2021-11-08 23:26:58.750000-05:00,-14,-39,15
2021-11-08 23:26:58.781250-05:00,-15,-40,17
2021-11-08 23:26:58.812500-05:00,-16,-48,13
2021-11-08 23:26:58.843750-05:00,-16,-55,13
2021-11-08 23:26:58.875000-05:00,-16,-75,14
2021-11-08 23:26:58.906250-05:00,-17,-83,14
2021-11-08 23:26:58.937500-05:00,-15,-75,7
2021-11-08 23:26:58.968750-05:00,-13,-68,3
2021-11-08 23:26:59-05:00,-10,-86,3
2021-11-08 23:26:59.031250-05:00,-11,-100,6
2021-11-08 23:26:59.062500-05:00,-20,-125,10
2021-11-08 23:26:59.093750-05:00,-14,-92,-4
2021-11-08 23:26:59.125000-05:00,-11,-89,-6
2021-11-08 23:26:59.156250-05:00,-5,-88,-3
2021-11-08 23:26:59.187500-05:00,-7,-83,-1
2021-11-08 23:26:59.218750-05:00,-8,-64,0
2021-11-08 23:26:59.250000-05:00,-7,-53,0
2021-11-08 23:26:59.281250-05:00,-5,-42,-1
2021-11-08 23:26:59.312500-05:00,-6,-36,-3
2021-11-08 23:26:59.343750-05:00,-6,-33,-4
2021-11-08 23:26:59.375000-05:00,-7,-31,-7
2021-11-08 23:26:59.406250-05:00,-5,-31,-9
2021-11-08 23:26:59.437500-05:00,-10,-36,-7
2021-11-08 23:26:59.468750-05:00,-23,-56,0
2021-11-08 23:26:59.500000-05:00,-28,-64,3
2021-11-08 23:26:59.531250-05:00,-24,-68,-1
2021-11-08 23:26:59.562500-05:00,-17,-75,-3
2021-11-08 23:26:59.593750-05:00,-10,-95,-5
2021-11-08 23:26:59.625000-05:00,-17,-107,3
2021-11-08 23:26:59.656250-05:00,-25,-109,20
2021-11-08 23:26:59.687500-05:00,-18,-99,4
2021-11-08 23:26:59.718750-05:00,-12,-86,-1
2021-11-08 23:26:59.750000-05:00,2,-70,3
2021-11-08 23:26:59.781250-05:00,3,-66,6
2021-11-08 23:26:59.812500-05:00,0,-53,15
2021-11-08 23:26:59.843750-05:00,-2,-46,18
2021-11-08 23:26:59.875000-05:00,-12,-32,11
2021-11-08 23:26:59.906250-05:00,-21,-30,0
2021-11-08 23:26:59.937500-05:00,-24,-32,-1
2021-11-08 23:26:59.968750-05:00,-30,-40,3
2021-11-08 23:27:00-05:00,-29,-43,7
2021-11-08 23:27:00.031250-05:00,-23,-57,12
2021-11-08 23:27:00.062500-05:00,-21,-68,13
2021-11-08 23:27:00.093750-05:00,-19,-85,16
2021-11-08 23:27:00.125000-05:00,-12,-86,8
2021-11-08 23:27:00.156250-05:00,-10,-90,3
2021-11-08 23:27:00.187500-05:00,-9,-123,5
2021-11-08 23:27:00.218750-05:00,-13,-128,13
2021-11-08 23:27:00.250000-05:00,-12,-90,5
2021-11-08 23:27:00.281250-05:00,-11,-85,-1
2021-11-08 23:27:00.312500-05:00,-4,-84,-2
2021-11-08 23:27:00.343750-05:00,-8,-78,-3
2021-11-08 23:27:00.375000-05:00,-9,-69,0
2021-11-08 23:27:00.406250-05:00,-9,-48,1
2021-11-08 23:27:00.437500-05:00,-7,-43,-1
2021-11-08 23:27:00.468750-05:00,-5,-38,-5
2021-11-08 23:27:00.500000-05:00,-5,-36,-7
2021-11-08 23:27:00.531250-05:00,-9,-38,-10
2021-11-08 23:27:00.562500-05:00,-13,-52,-9
2021-11-08 23:27:00.593750-05:00,-15,-62,-10
2021-11-08 23:27:00.625000-05:00,-19,-73,-10
2021-11-08 23:27:00.656250-05:00,-19,-77,-10
2021-11-08 23:27:00.687500-05:00,-16,-82,-8
2021-11-08 23:27:00.718750-05:00,-14,-84,-9
2021-11-08 23:27:00.750000-05:00,-17,-79,0
2021-11-08 23:27:00.781250-05:00,-22,-75,7
2021-11-08 23:27:00.812500-05:00,-22,-74,5
2021-11-08 23:27:00.843750-05:00,-17,-74,3
2021-11-08 23:27:00.875000-05:00,-13,-72,5
2021-11-08 23:27:00.906250-05:00,-6,-62,14
2021-11-08 23:27:00.937500-05:00,-2,-53,18
2021-11-08 23:27:00.968750-05:00,16,-44,31
2021-11-08 23:27:01-05:00,-20,-43,13
2021-11-08 23:27:01.031250-05:00,-21,-42,12
2021-11-08 23:27:01.062500-05:00,-19,-58,18
2021-11-08 23:27:01.093750-05:00,-19,-64,19
2021-11-08 23:27:01.125000-05:00,-16,-71,17
2021-11-08 23:27:01.156250-05:00,-17,-77,14
2021-11-08 23:27:01.187500-05:00,-16,-80,16
2021-11-08 23:27:01.218750-05:00,-14,-78,9
2021-11-08 23:27:01.250000-05:00,-12,-83,7
2021-11-08 23:27:01.281250-05:00,-11,-106,6
2021-11-08 23:27:01.312500-05:00,-13,-117,8
2021-11-08 23:27:01.343750-05:00,-15,-92,5
2021-11-08 23:27:01.375000-05:00,-13,-87,0
2021-11-08 23:27:01.406250-05:00,-11,-82,-3
2021-11-08 23:27:01.437500-05:00,-11,-82,-3
2021-11-08 23:27:01.468750-05:00,-11,-77,-3
2021-11-08 23:27:01.500000-05:00,-7,-58,1
2021-11-08 23:27:01.531250-05:00,-6,-48,0
2021-11-08 23:27:01.562500-05:00,-5,-39,-3
2021-11-08 23:27:01.593750-05:00,-7,-40,-6
2021-11-08 23:27:01.625000-05:00,-11,-43,-8
2021-11-08 23:27:01.656250-05:00,-13,-58,-8
2021-11-08 23:27:01.687500-05:00,-13,-64,-8
2021-11-08 23:27:01.718750-05:00,-14,-77,-4
2021-11-08 23:27:01.750000-05:00,-18,-80,-15
2021-11-08 23:27:01.781250-05:00,-10,-78,-3
2021-11-08 23:27:01.812500-05:00,-6,-81,5
2021-11-08 23:27:01.843750-05:00,-16,-70,11
2021-11-08 23:27:01.875000-05:00,-16,-62,6
2021-11-08 23:27:01.906250-05:00,-20,-63,0
2021-11-08 23:27:01.937500-05:00,-3,-68,-1
2021-11-08 23:27:01.968750-05:00,-2,-74,-4
2021-11-08 23:27:02-05:00,-33,-74,13
2021-11-08 23:27:02.031250-05:00,-27,-62,19
2021-11-08 23:27:02.062500-05:00,-22,-46,17
2021-11-08 23:27:02.093750-05:00,-23,-47,25
2021-11-08 23:27:02.125000-05:00,-19,-47,22
2021-11-08 23:27:02.156250-05:00,-6,-57,11
2021-11-08 23:27:02.187500-05:00,-4,-66,0
2021-11-08 23:27:02.218750-05:00,-28,-89,11
2021-11-08 23:27:02.250000-05:00,-25,-86,20
2021-11-08 23:27:02.281250-05:00,-10,-79,21
2021-11-08 23:27:02.312500-05:00,-13,-86,21
2021-11-08 23:27:02.343750-05:00,-17,-96,16
2021-11-08 23:27:02.375000-05:00,-26,-111,4
2021-11-08 23:27:02.406250-05:00,-25,-99,-1
2021-11-08 23:27:02.437500-05:00,-19,-84,-2
2021-11-08 23:27:02.468750-05:00,-15,-85,1
2021-11-08 23:27:02.500000-05:00,-11,-90,1
2021-11-08 23:27:02.531250-05:00,-9,-73,-6
2021-11-08 23:27:02.562500-05:00,-8,-60,-7
2021-11-08 23:27:02.593750-05:00,-6,-43,-5
2021-11-08 23:27:02.625000-05:00,-6,-41,-4
2021-11-08 23:27:02.656250-05:00,-9,-47,-5
2021-11-08 23:27:02.687500-05:00,-11,-50,-8
2021-11-08 23:27:02.718750-05:00,-11,-61,-13
2021-11-08 23:27:02.750000-05:00,-9,-71,-16
2021-11-08 23:27:02.781250-05:00,-9,-75,-18
2021-11-08 23:27:02.812500-05:00,-14,-73,-16
2021-11-08 23:27:02.843750-05:00,-13,-72,-12
2021-11-08 23:27:02.875000-05:00,-13,-72,-10
2021-11-08 23:27:02.906250-05:00,-16,-70,-6
2021-11-08 23:27:02.937500-05:00,-20,-67,6
2021-11-08 23:27:02.968750-05:00,-21,-77,5
2021-11-08 23:27:03-05:00,-18,-85,3
2021-11-08 23:27:03.031250-05:00,-8,-88,2
2021-11-08 23:27:03.062500-05:00,-2,-82,5
2021-11-08 23:27:03.093750-05:00,2,-58,19
2021-11-08 23:27:03.125000-05:00,-5,-42,24
2021-11-08 23:27:03.156250-05:00,-9,-40,24
2021-11-08 23:27:03.187500-05:00,-15,-44,18
2021-11-08 23:27:03.218750-05:00,-13,-43,16
2021-11-08 23:27:03.250000-05:00,-17,-52,13
2021-11-08 23:27:03.281250-05:00,-22,-62,11
2021-11-08 23:27:03.312500-05:00,-19,-84,20
2021-11-08 23:27:03.343750-05:00,-10,-96,16
2021-11-08 23:27:03.375000-05:00,-6,-93,10
2021-11-08 23:27:03.406250-05:00,-4,-101,4
2021-11-08 23:27:03.437500-05:00,-7,-113,6
2021-11-08 23:27:03.468750-05:00,-19,-92,0
2021-11-08 23:27:03.500000-05:00,-20,-84,-5
2021-11-08 23:27:03.531250-05:00,-15,-78,-8
2021-11-08 23:27:03.562500-05:00,-12,-78,-5
2021-11-08 23:27:03.593750-05:00,-12,-79,-4
2021-11-08 23:27:03.625000-05:00,-10,-65,-1
2021-11-08 23:27:03.656250-05:00,-7,-57,0
2021-11-08 23:27:03.687500-05:00,-4,-47,-3
2021-11-08 23:27:03.718750-05:00,-5,-46,-6
2021-11-08 23:27:03.750000-05:00,-9,-48,-9
2021-11-08 23:27:03.781250-05:00,-15,-53,-9
2021-11-08 23:27:03.812500-05:00,-15,-57,-9
2021-11-08 23:27:03.843750-05:00,-14,-59,-9
2021-11-08 23:27:03.875000-05:00,-14,-59,-10
2021-11-08 23:27:03.906250-05:00,-18,-56,-10
2021-11-08 23:27:03.937500-05:00,-20,-55,-8
2021-11-08 23:27:03.968750-05:00,-20,-62,-2
2021-11-08 23:27:04-05:00,-21,-74,3
2021-11-08 23:27:04.031250-05:00,-24,-79,11
2021-11-08 23:27:04.062500-05:00,-20,-84,14
2021-11-08 23:27:04.093750-05:00,-16,-84,7
2021-11-08 23:27:04.125000-05:00,-9,-82,0
2021-11-08 23:27:04.156250-05:00,-6,-77,1
2021-11-08 23:27:04.187500-05:00,-3,-69,14
2021-11-08 23:27:04.218750-05:00,-5,-55,19
2021-11-08 23:27:04.250000-05:00,-9,-50,18
2021-11-08 23:27:04.281250-05:00,-14,-47,16
2021-11-08 23:27:04.312500-05:00,-16,-47,13
2021-11-08 23:27:04.343750-05:00,-21,-49,11
2021-11-08 23:27:04.375000-05:00,-21,-53,12
2021-11-08 23:27:04.406250-05:00,-17,-63,15
2021-11-08 23:27:04.437500-05:00,-12,-76,17
2021-11-08 23:27:04.468750-05:00,-11,-75,14
2021-11-08 23:27:04.500000-05:00,-9,-68,10
2021-11-08 23:27:04.531250-05:00,-8,-71,7
2021-11-08 23:27:04.562500-05:00,-9,-86,3
2021-11-08 23:27:04.593750-05:00,-11,-101,2
2021-11-08 23:27:04.625000-05:00,-21,-107,2
2021-11-08 23:27:04.656250-05:00,-23,-77,-5
2021-11-08 23:27:04.687500-05:00,-26,-83,-8
2021-11-08 23:27:04.718750-05:00,-24,-89,-3
2021-11-08 23:27:04.750000-05:00,-26,-92,-3
2021-11-08 23:27:04.781250-05:00,-24,-86,-3
2021-11-08 23:27:04.812500-05:00,-16,-78,-1
2021-11-08 23:27:04.843750-05:00,-10,-60,2
2021-11-08 23:27:04.875000-05:00,-8,-48,2
2021-11-08 23:27:04.906250-05:00,-7,-44,2
2021-11-08 23:27:04.937500-05:00,-8,-21,5
2021-11-08 23:27:04.968750-05:00,-12,-26,7
2021-11-08 23:27:05-05:00,-13,-23,17
2021-11-08 23:27:05.031250-05:00,-6,-23,25
2021-11-08 23:27:05.062500-05:00,-17,-31,46
2021-11-08 23:27:05.093750-05:00,-31,-39,56
2021-11-08 23:27:05.125000-05:00,-25,-39,61
2021-11-08 23:27:05.156250-05:00,-14,-37,70
2021-11-08 23:27:05.187500-05:00,-14,-38,70
2021-11-08 23:27:05.218750-05:00,-12,-40,68
2021-11-08 23:27:05.250000-05:00,-8,-39,62
2021-11-08 23:27:05.281250-05:00,-5,-34,54
2021-11-08 23:27:05.312500-05:00,-3,-29,50
2021-11-08 23:27:05.343750-05:00,-6,-29,48
2021-11-08 23:27:05.375000-05:00,-3,-27,45
2021-11-08 23:27:05.406250-05:00,-2,-27,47
2021-11-08 23:27:05.437500-05:00,-3,-25,46
2021-11-08 23:27:05.468750-05:00,-3,-24,45
2021-11-08 23:27:05.500000-05:00,-4,-15,45
2021-11-08 23:27:05.531250-05:00,-5,-18,47
2021-11-08 23:27:05.562500-05:00,-7,-19,47
2021-11-08 23:27:05.593750-05:00,-9,-21,47
2021-11-08 23:27:05.625000-05:00,-10,-21,48
2021-11-08 23:27:05.656250-05:00,-10,-21,50
2021-11-08 23:27:05.687500-05:00,-12,-19,48
2021-11-08 23:27:05.718750-05:00,-14,-26,59
2021-11-08 23:27:05.750000-05:00,-14,-31,67
2021-11-08 23:27:05.781250-05:00,-14,-28,61
2021-11-08 23:27:05.812500-05:00,-12,-21,56
2021-11-08 23:27:05.843750-05:00,-11,-19,58
2021-11-08 23:27:05.875000-05:00,-7,-14,58
2021-11-08 23:27:05.906250-05:00,-2,-12,56
2021-11-08 23:27:05.937500-05:00,-3,-14,58
2021-11-08 23:27:05.968750-05:00,-12,-17,57
2021-11-08 23:27:06-05:00,-15,-19,57
2021-11-08 23:27:06.031250-05:00,-17,-21,57
2021-11-08 23:27:06.062500-05:00,-16,-21,58
2021-11-08 23:27:06.093750-05:00,-15,-20,58
2021-11-08 23:27:06.125000-05:00,-12,-19,58
2021-11-08 23:27:06.156250-05:00,-9,-17,57
2021-11-08 23:27:06.187500-05:00,-7,-17,61
2021-11-08 23:27:06.218750-05:00,-7,-18,61
2021-11-08 23:27:06.250000-05:00,-8,-17,62
2021-11-08 23:27:06.281250-05:00,-8,-18,62
2021-11-08 23:27:06.312500-05:00,-5,-18,63
2021-11-08 23:27:06.343750-05:00,-6,-16,64
2021-11-08 23:27:06.375000-05:00,-5,-16,61
2021-11-08 23:27:06.406250-05:00,-5,-13,62
2021-11-08 23:27:06.437500-05:00,-6,-15,58
2021-11-08 23:27:06.468750-05:00,-2,-29,8
2021-11-08 23:27:06.500000-05:00,-1,-10,62
2021-11-08 23:27:06.531250-05:00,-1,-12,60
2021-11-08 23:27:06.562500-05:00,-4,-8,58
2021-11-08 23:27:06.593750-05:00,-5,-9,58
2021-11-08 23:27:06.625000-05:00,-2,-11,62
2021-11-08 23:27:06.656250-05:00,-5,-8,66
2021-11-08 23:27:06.687500-05:00,-11,-7,75
2021-11-08 23:27:06.718750-05:00,-7,-16,71
2021-11-08 23:27:06.750000-05:00,22,-42,55
2021-11-08 23:27:06.781250-05:00,-10,-20,47
2021-11-08 23:27:06.812500-05:00,-6,-14,56
2021-11-08 23:27:06.843750-05:00,-9,-13,55
2021-11-08 23:27:06.875000-05:00,-10,-12,56
2021-11-08 23:27:06.906250-05:00,-8,-14,60
2021-11-08 23:27:06.937500-05:00,-9,-15,63
2021-11-08 23:27:06.968750-05:00,-10,-17,63
2021-11-08 23:27:07-05:00,-9,-18,62
2021-11-08 23:27:07.031250-05:00,-7,-17,63
2021-11-08 23:27:07.062500-05:00,-7,-16,61
2021-11-08 23:27:07.093750-05:00,-6,-15,59
2021-11-08 23:27:07.125000-05:00,-6,-16,58
2021-11-08 23:27:07.156250-05:00,-6,-16,58
2021-11-08 23:27:07.187500-05:00,-6,-18,59
2021-11-08 23:27:07.218750-05:00,-8,-20,58
2021-11-08 23:27:07.250000-05:00,-9,-20,59
2021-11-08 23:27:07.281250-05:00,-9,-20,59
2021-11-08 23:27:07.312500-05:00,-9,-20,57
2021-11-08 23:27:07.343750-05:00,-9,-19,58
2021-11-08 23:27:07.375000-05:00,-9,-19,59
2021-11-08 23:27:07.406250-05:00,-9,-17,58
2021-11-08 23:27:07.437500-05:00,-11,-17,59
2021-11-08 23:27:07.468750-05:00,-10,-17,60
2021-11-08 23:27:07.500000-05:00,-10,-17,60
2021-11-08 23:27:07.531250-05:00,-10,-17,60
2021-11-08 23:27:07.562500-05:00,-12,-17,59
2021-11-08 23:27:07.593750-05:00,-13,-16,58
2021-11-08 23:27:07.625000-05:00,-14,-17,58
2021-11-08 23:27:07.656250-05:00,-14,-19,59
2021-11-08 23:27:07.687500-05:00,-14,-19,58
2021-11-08 23:27:07.718750-05:00,-14,-20,58
2021-11-08 23:27:07.750000-05:00,-13,-20,59
2021-11-08 23:27:07.781250-05:00,-14,-21,58
2021-11-08 23:27:07.812500-05:00,-14,-21,58
2021-11-08 23:27:07.843750-05:00,-14,-22,60
2021-11-08 23:27:07.875000-05:00,-16,-24,57
2021-11-08 23:27:07.906250-05:00,-15,-24,56
2021-11-08 23:27:07.937500-05:00,-15,-22,54
2021-11-08 23:27:07.968750-05:00,-15,-22,53
2021-11-08 23:27:08-05:00,-15,-25,55
2021-11-08 23:27:08.031250-05:00,-15,-26,56
2021-11-08 23:27:08.062500-05:00,-16,-27,54
2021-11-08 23:27:08.093750-05:00,-18,-28,53
2021-11-08 23:27:08.125000-05:00,-18,-28,54
2021-11-08 23:27:08.156250-05:00,-22,-28,50
2021-11-08 23:27:08.187500-05:00,-21,-27,49
2021-11-08 23:27:08.218750-05:00,-20,-28,50
2021-11-08 23:27:08.250000-05:00,-22,-29,49
2021-11-08 23:27:08.281250-05:00,-22,-33,50
2021-11-08 23:27:08.312500-05:00,-26,-39,50
2021-11-08 23:27:08.343750-05:00,-24,-41,50
2021-11-08 23:27:08.375000-05:00,-18,-43,51
2021-11-08 23:27:08.406250-05:00,-20,-44,49
2021-11-08 23:27:08.437500-05:00,-27,-41,38
2021-11-08 23:27:08.468750-05:00,-23,-38,37
2021-11-08 23:27:08.500000-05:00,-21,-37,42
2021-11-08 23:27:08.531250-05:00,-30,-36,40
2021-11-08 23:27:08.562500-05:00,-30,-36,43
2021-11-08 23:27:08.593750-05:00,-28,-36,50
2021-11-08 23:27:08.625000-05:00,-29,-36,50
2021-11-08 23:27:08.656250-05:00,-26,-33,48
2021-11-08 23:27:08.687500-05:00,-25,-31,48
2021-11-08 23:27:08.718750-05:00,-27,-28,46
2021-11-08 23:27:08.750000-05:00,-29,-29,48
2021-11-08 23:27:08.781250-05:00,-26,-29,50
2021-11-08 23:27:08.812500-05:00,-26,-32,52
2021-11-08 23:27:08.843750-05:00,-28,-32,49
2021-11-08 23:27:08.875000-05:00,-28,-29,45
2021-11-08 23:27:08.906250-05:00,-26,-33,51
2021-11-08 23:27:08.937500-05:00,-24,-34,51
2021-11-08 23:27:08.968750-05:00,-26,-29,38
2021-11-08 23:27:09-05:00,-26,-27,38
2021-11-08 23:27:09.031250-05:00,-27,-30,46
2021-11-08 23:27:09.062500-05:00,-28,-33,50
2021-11-08 23:27:09.093750-05:00,-34,-40,49
2021-11-08 23:27:09.125000-05:00,-36,-41,48
2021-11-08 23:27:09.156250-05:00,-33,-35,48
2021-11-08 23:27:09.187500-05:00,-33,-29,47
2021-11-08 23:27:09.218750-05:00,-33,-25,44
2021-11-08 23:27:09.250000-05:00,-35,-22,42
2021-11-08 23:27:09.281250-05:00,-36,-22,44
2021-11-08 23:27:09.312500-05:00,-35,-24,48
2021-11-08 23:27:09.343750-05:00,-36,-26,48
2021-11-08 23:27:09.375000-05:00,-36,-28,48
2021-11-08 23:27:09.406250-05:00,-37,-31,49
2021-11-08 23:27:09.437500-05:00,-34,-32,51
2021-11-08 23:27:09.468750-05:00,-30,-34,49
2021-11-08 23:27:09.500000-05:00,-23,-40,47
2021-11-08 23:27:09.531250-05:00,-33,-36,48
2021-11-08 23:27:09.562500-05:00,-42,-36,51
2021-11-08 23:27:09.593750-05:00,-32,-61,59
2021-11-08 23:27:09.625000-05:00,-46,-87,42
2021-11-08 23:27:09.656250-05:00,-46,-61,26
2021-11-08 23:27:09.687500-05:00,-32,-37,0
2021-11-08 23:27:09.718750-05:00,-23,-27,0
2021-11-08 23:27:09.750000-05:00,-47,28,-4
2021-11-08 23:27:09.781250-05:00,-61,34,0
2021-11-08 23:27:09.812500-05:00,-65,57,25
2021-11-08 23:27:09.843750-05:00,-60,36,36
2021-11-08 23:27:09.875000-05:00,-67,30,40
2021-11-08 23:27:09.906250-05:00,-67,13,65
2021-11-08 23:27:09.937500-05:00,-64,8,76
2021-11-08 23:27:09.968750-05:00,-83,-29,57
2021-11-08 23:27:10-05:00,-87,-72,33
2021-11-08 23:27:10.031250-05:00,-75,-89,41
2021-11-08 23:27:10.062500-05:00,-84,-128,5
2021-11-08 23:27:10.093750-05:00,-65,-128,-9
2021-11-08 23:27:10.125000-05:00,-10,-81,9
2021-11-08 23:27:10.156250-05:00,-14,-68,24
2021-11-08 23:27:10.187500-05:00,-38,-72,7
2021-11-08 23:27:10.218750-05:00,-36,-67,-3
2021-11-08 23:27:10.250000-05:00,-25,-65,-8
2021-11-08 23:27:10.281250-05:00,-10,-49,2
2021-11-08 23:27:10.312500-05:00,-10,-37,4
2021-11-08 23:27:10.343750-05:00,-12,-17,6
2021-11-08 23:27:10.375000-05:00,-11,-11,8
2021-11-08 23:27:10.406250-05:00,-11,4,6
2021-11-08 23:27:10.437500-05:00,-17,14,15
2021-11-08 23:27:10.468750-05:00,-23,7,25
2021-11-08 23:27:10.500000-05:00,-39,14,40
2021-11-08 23:27:10.531250-05:00,-43,16,51
2021-11-08 23:27:10.562500-05:00,-42,24,70
2021-11-08 23:27:10.593750-05:00,-46,22,72
2021-11-08 23:27:10.625000-05:00,-35,14,76
2021-11-08 23:27:10.656250-05:00,-34,5,82
2021-11-08 23:27:10.687500-05:00,-36,-6,80
2021-11-08 23:27:10.718750-05:00,-33,-25,89
2021-11-08 23:27:10.750000-05:00,-33,-31,81
2021-11-08 23:27:10.781250-05:00,-29,-34,71
2021-11-08 23:27:10.812500-05:00,-33,-34,63
2021-11-08 23:27:10.843750-05:00,-24,-29,55
2021-11-08 23:27:10.875000-05:00,-27,-24,45
2021-11-08 23:27:10.906250-05:00,-26,-20,44
2021-11-08 23:27:10.937500-05:00,-22,-17,50
2021-11-08 23:27:10.968750-05:00,-28,-15,47
2021-11-08 23:27:11-05:00,-23,-10,48
2021-11-08 23:27:11.031250-05:00,-20,-9,46
2021-11-08 23:27:11.062500-05:00,-18,-2,42
2021-11-08 23:27:11.093750-05:00,-18,-1,40
2021-11-08 23:27:11.125000-05:00,-18,-3,42
2021-11-08 23:27:11.156250-05:00,-22,-8,43
2021-11-08 23:27:11.187500-05:00,-25,-10,43
2021-11-08 23:27:11.218750-05:00,-31,-16,49
2021-11-08 23:27:11.250000-05:00,-35,-10,50
2021-11-08 23:27:11.281250-05:00,-56,-46,115
2021-11-08 23:27:11.312500-05:00,-52,-60,99
2021-11-08 23:27:11.343750-05:00,-50,-51,79
2021-11-08 23:27:11.375000-05:00,-32,-36,57
2021-11-08 23:27:11.406250-05:00,-27,-27,51
2021-11-08 23:27:11.437500-05:00,-18,-10,42
2021-11-08 23:27:11.468750-05:00,-14,-5,37
2021-11-08 23:27:11.500000-05:00,-10,-2,31
2021-11-08 23:27:11.531250-05:00,-10,4,24
2021-11-08 23:27:11.562500-05:00,-12,6,25
2021-11-08 23:27:11.593750-05:00,-10,1,32
2021-11-08 23:27:11.625000-05:00,-9,-2,31
2021-11-08 23:27:11.656250-05:00,-11,-9,36
2021-11-08 23:27:11.687500-05:00,-32,-15,55
2021-11-08 23:27:11.718750-05:00,-43,-62,95
2021-11-08 23:27:11.750000-05:00,-45,-87,90
2021-11-08 23:27:11.781250-05:00,-39,-83,96
2021-11-08 23:27:11.812500-05:00,-42,-59,74
2021-11-08 23:27:11.843750-05:00,-33,-43,56
2021-11-08 23:27:11.875000-05:00,-19,-18,41
2021-11-08 23:27:11.906250-05:00,-18,-10,37
2021-11-08 23:27:11.937500-05:00,-17,-5,27
2021-11-08 23:27:11.968750-05:00,-14,0,22
2021-11-08 23:27:12-05:00,-12,2,22
2021-11-08 23:27:12.031250-05:00,-15,3,23
2021-11-08 23:27:12.062500-05:00,-17,4,22
2021-11-08 23:27:12.093750-05:00,-17,7,22
2021-11-08 23:27:12.125000-05:00,-19,7,24
2021-11-08 23:27:12.156250-05:00,-32,9,35
2021-11-08 23:27:12.187500-05:00,-59,-14,89
2021-11-08 23:27:12.218750-05:00,-70,-43,109
2021-11-08 23:27:12.250000-05:00,-82,-105,123
2021-11-08 23:27:12.281250-05:00,-72,-108,116
2021-11-08 23:27:12.312500-05:00,-46,-56,71
2021-11-08 23:27:12.343750-05:00,-37,-35,55
2021-11-08 23:27:12.375000-05:00,-22,-18,37
2021-11-08 23:27:12.406250-05:00,-14,-8,23
2021-11-08 23:27:12.437500-05:00,-12,-4,19
2021-11-08 23:27:12.468750-05:00,-8,4,16
2021-11-08 23:27:12.500000-05:00,-10,5,15
2021-11-08 23:27:12.531250-05:00,-15,7,23
2021-11-08 23:27:12.562500-05:00,-16,3,27
2021-11-08 23:27:12.593750-05:00,-18,-1,28
2021-11-08 23:27:12.625000-05:00,-28,8,30
2021-11-08 23:27:12.656250-05:00,-73,3,81
2021-11-08 23:27:12.687500-05:00,-71,-59,104
2021-11-08 23:27:12.718750-05:00,-67,-86,99
2021-11-08 23:27:12.750000-05:00,-34,-48,96
2021-11-08 23:27:12.781250-05:00,-26,-38,84
2021-11-08 23:27:12.812500-05:00,-21,-17,50
2021-11-08 23:27:12.843750-05:00,-18,-4,34
2021-11-08 23:27:12.875000-05:00,-17,-2,31
2021-11-08 23:27:12.906250-05:00,-16,-2,25
2021-11-08 23:27:12.937500-05:00,-15,-1,22
2021-11-08 23:27:12.968750-05:00,-20,2,23
2021-11-08 23:27:13-05:00,-26,2,26
2021-11-08 23:27:13.031250-05:00,-25,2,27
2021-11-08 23:27:13.062500-05:00,-25,-4,28
2021-11-08 23:27:13.093750-05:00,-23,-4,26
2021-11-08 23:27:13.125000-05:00,-31,10,30
2021-11-08 23:27:13.156250-05:00,-63,16,55
2021-11-08 23:27:13.187500-05:00,-91,-22,104
2021-11-08 23:27:13.218750-05:00,-94,-54,108
2021-11-08 23:27:13.250000-05:00,-84,-58,99
2021-11-08 23:27:13.281250-05:00,-51,-34,69
2021-11-08 23:27:13.312500-05:00,-42,-23,52
2021-11-08 23:27:13.343750-05:00,-32,-11,33
2021-11-08 23:27:13.375000-05:00,-29,-6,28
2021-11-08 23:27:13.406250-05:00,-22,-1,21
2021-11-08 23:27:13.437500-05:00,-20,-2,19
2021-11-08 23:27:13.468750-05:00,-14,-2,14
2021-11-08 23:27:13.500000-05:00,-12,1,10
2021-11-08 23:27:13.531250-05:00,-11,2,11
2021-11-08 23:27:13.562500-05:00,-19,-3,17
2021-11-08 23:27:13.593750-05:00,-26,-6,19
2021-11-08 23:27:13.625000-05:00,-47,-11,29
2021-11-08 23:27:13.656250-05:00,-68,-14,45
2021-11-08 23:27:13.687500-05:00,-80,-83,86
2021-11-08 23:27:13.718750-05:00,-75,-104,109
2021-11-08 23:27:13.750000-05:00,-69,-91,94
2021-11-08 23:27:13.781250-05:00,-42,-51,69
2021-11-08 23:27:13.812500-05:00,-32,-34,59
2021-11-08 23:27:13.843750-05:00,-20,-14,40
2021-11-08 23:27:13.875000-05:00,-15,-8,32
2021-11-08 23:27:13.906250-05:00,-18,0,25
2021-11-08 23:27:13.937500-05:00,-18,4,22
2021-11-08 23:27:13.968750-05:00,-17,6,19
2021-11-08 23:27:14-05:00,-21,10,18
2021-11-08 23:27:14.031250-05:00,-24,7,20
2021-11-08 23:27:14.062500-05:00,-28,2,22
2021-11-08 23:27:14.093750-05:00,-32,-2,32
2021-11-08 23:27:14.125000-05:00,-69,-15,51
2021-11-08 23:27:14.156250-05:00,-97,-53,88
2021-11-08 23:27:14.187500-05:00,-103,-87,100
2021-11-08 23:27:14.218750-05:00,-90,-94,107
2021-11-08 23:27:14.250000-05:00,-67,-84,91
2021-11-08 23:27:14.281250-05:00,-37,-38,57
2021-11-08 23:27:14.312500-05:00,-31,-18,38
2021-11-08 23:27:14.343750-05:00,-29,-12,27
2021-11-08 23:27:14.375000-05:00,-23,-1,15
2021-11-08 23:27:14.406250-05:00,-21,1,13
2021-11-08 23:27:14.437500-05:00,-15,0,17
2021-11-08 23:27:14.468750-05:00,-11,2,20
2021-11-08 23:27:14.500000-05:00,-18,4,21
2021-11-08 23:27:14.531250-05:00,-24,0,25
2021-11-08 23:27:14.562500-05:00,-26,-1,28
2021-11-08 23:27:14.593750-05:00,-31,-6,34
2021-11-08 23:27:14.625000-05:00,-33,-6,37
2021-11-08 23:27:14.656250-05:00,-40,-7,43
2021-11-08 23:27:14.687500-05:00,-63,9,58
2021-11-08 23:27:14.718750-05:00,-78,-35,85
2021-11-08 23:27:14.750000-05:00,-71,-44,88
2021-11-08 23:27:14.781250-05:00,-56,-38,89
2021-11-08 23:27:14.812500-05:00,-41,-29,74
2021-11-08 23:27:14.843750-05:00,-36,-23,63
2021-11-08 23:27:14.875000-05:00,-21,-7,43
2021-11-08 23:27:14.906250-05:00,-19,-2,35
2021-11-08 23:27:14.937500-05:00,-19,1,26
2021-11-08 23:27:14.968750-05:00,-22,2,21
2021-11-08 23:27:15-05:00,-22,4,20
2021-11-08 23:27:15.031250-05:00,-23,6,23
2021-11-08 23:27:15.062500-05:00,-25,4,25
2021-11-08 23:27:15.093750-05:00,-27,2,25
2021-11-08 23:27:15.125000-05:00,-30,-1,27
2021-11-08 23:27:15.156250-05:00,-48,-4,39
2021-11-08 23:27:15.187500-05:00,-64,-12,59
2021-11-08 23:27:15.218750-05:00,-78,-8,77
2021-11-08 23:27:15.250000-05:00,-93,-54,92
2021-11-08 23:27:15.281250-05:00,-85,-51,90
2021-11-08 23:27:15.312500-05:00,-64,-37,74
2021-11-08 23:27:15.343750-05:00,-50,-27,62
2021-11-08 23:27:15.375000-05:00,-36,-10,42
2021-11-08 23:27:15.406250-05:00,-29,-4,32
2021-11-08 23:27:15.437500-05:00,-28,-2,28
2021-11-08 23:27:15.468750-05:00,-25,3,23
2021-11-08 23:27:15.500000-05:00,-25,4,22
2021-11-08 23:27:15.531250-05:00,-22,2,21
2021-11-08 23:27:15.562500-05:00,-21,2,21
2021-11-08 23:27:15.593750-05:00,-25,3,25
2021-11-08 23:27:15.625000-05:00,-34,-4,30
2021-11-08 23:27:15.656250-05:00,-34,-7,31
2021-11-08 23:27:15.687500-05:00,-35,-4,32
2021-11-08 23:27:15.718750-05:00,-39,-6,35
2021-11-08 23:27:15.750000-05:00,-85,-13,76
2021-11-08 23:27:15.781250-05:00,-93,-44,79
2021-11-08 23:27:15.812500-05:00,-88,-75,89
2021-11-08 23:27:15.843750-05:00,-68,-50,77
2021-11-08 23:27:15.875000-05:00,-59,-41,68
2021-11-08 23:27:15.906250-05:00,-42,-23,52
2021-11-08 23:27:15.937500-05:00,-34,-16,45
2021-11-08 23:27:15.968750-05:00,-22,-8,32
2021-11-08 23:27:16-05:00,-14,-4,22
2021-11-08 23:27:16.031250-05:00,-13,-1,19
2021-11-08 23:27:16.062500-05:00,-13,4,16
2021-11-08 23:27:16.093750-05:00,-15,7,15
2021-11-08 23:27:16.125000-05:00,-19,5,19
2021-11-08 23:27:16.156250-05:00,-20,5,19
2021-11-08 23:27:16.187500-05:00,-29,1,23
2021-11-08 23:27:16.218750-05:00,-38,-4,27
2021-11-08 23:27:16.250000-05:00,-57,-11,41
2021-11-08 23:27:16.281250-05:00,-68,-23,71
2021-11-08 23:27:16.312500-05:00,-78,-53,100
2021-11-08 23:27:16.343750-05:00,-84,-94,113
2021-11-08 23:27:16.375000-05:00,-71,-87,104
2021-11-08 23:27:16.406250-05:00,-38,-47,69
2021-11-08 23:27:16.437500-05:00,-35,-29,56
2021-11-08 23:27:16.468750-05:00,-32,-13,40
2021-11-08 23:27:16.500000-05:00,-26,-6,29
2021-11-08 23:27:16.531250-05:00,-26,-3,25
2021-11-08 23:27:16.562500-05:00,-28,-1,22
2021-11-08 23:27:16.593750-05:00,-24,-3,20
2021-11-08 23:27:16.625000-05:00,-19,-3,18
2021-11-08 23:27:16.656250-05:00,-17,-3,19
2021-11-08 23:27:16.687500-05:00,-20,2,23
2021-11-08 23:27:16.718750-05:00,-39,-6,37
2021-11-08 23:27:16.750000-05:00,-48,-15,42
2021-11-08 23:27:16.781250-05:00,-46,-15,43
2021-11-08 23:27:16.812500-05:00,-43,-16,51
2021-11-08 23:27:16.843750-05:00,-57,-10,75
2021-11-08 23:27:16.875000-05:00,-55,-44,89
2021-11-08 23:27:16.906250-05:00,-51,-76,85
2021-11-08 23:27:16.937500-05:00,-35,-52,69
2021-11-08 23:27:16.968750-05:00,-33,-45,69
2021-11-08 23:27:17-05:00,-35,-36,57
2021-11-08 23:27:17.031250-05:00,-32,-28,47
2021-11-08 23:27:17.062500-05:00,-23,-14,36
2021-11-08 23:27:17.093750-05:00,-20,-10,33
2021-11-08 23:27:17.125000-05:00,-20,-7,29
2021-11-08 23:27:17.156250-05:00,-23,-5,26
2021-11-08 23:27:17.187500-05:00,-23,-3,25
2021-11-08 23:27:17.218750-05:00,-30,-7,30
2021-11-08 23:27:17.250000-05:00,-29,-11,34
2021-11-08 23:27:17.281250-05:00,-30,-16,36
2021-11-08 23:27:17.312500-05:00,-30,-16,36
2021-11-08 23:27:17.343750-05:00,-31,-16,37
2021-11-08 23:27:17.375000-05:00,-41,-10,40
2021-11-08 23:27:17.406250-05:00,-53,-14,49
2021-11-08 23:27:17.437500-05:00,-83,-27,61
2021-11-08 23:27:17.468750-05:00,-90,-40,71
2021-11-08 23:27:17.500000-05:00,-81,-57,79
2021-11-08 23:27:17.531250-05:00,-69,-48,75
2021-11-08 23:27:17.562500-05:00,-48,-27,57
2021-11-08 23:27:17.593750-05:00,-42,-13,47
2021-11-08 23:27:17.625000-05:00,-42,-10,43
2021-11-08 23:27:17.656250-05:00,-38,-8,33
2021-11-08 23:27:17.687500-05:00,-32,-6,29
2021-11-08 23:27:17.718750-05:00,-24,-1,26
2021-11-08 23:27:17.750000-05:00,-24,0,25
2021-11-08 23:27:17.781250-05:00,-23,0,22
2021-11-08 23:27:17.812500-05:00,-25,4,20
2021-11-08 23:27:17.843750-05:00,-26,6,21
2021-11-08 23:27:17.875000-05:00,-33,2,25
2021-11-08 23:27:17.906250-05:00,-37,-1,26
2021-11-08 23:27:17.937500-05:00,-51,-8,33
2021-11-08 23:27:17.968750-05:00,-59,-11,41
2021-11-08 23:27:18-05:00,-61,-20,53
2021-11-08 23:27:18.031250-05:00,-64,-59,81
2021-11-08 23:27:18.062500-05:00,-59,-76,85
2021-11-08 23:27:18.093750-05:00,-50,-60,83
2021-11-08 23:27:18.125000-05:00,-48,-52,76
2021-11-08 23:27:18.156250-05:00,-37,-37,64
2021-11-08 23:27:18.187500-05:00,-29,-29,56
2021-11-08 23:27:18.218750-05:00,-15,-15,43
2021-11-08 23:27:18.250000-05:00,-11,-7,33
2021-11-08 23:27:18.281250-05:00,-13,-5,30
2021-11-08 23:27:18.312500-05:00,-15,-3,25
2021-11-08 23:27:18.343750-05:00,-17,-1,22
2021-11-08 23:27:18.375000-05:00,-21,2,25
2021-11-08 23:27:18.406250-05:00,-23,-3,29
2021-11-08 23:27:18.437500-05:00,-29,-5,31
2021-11-08 23:27:18.468750-05:00,-36,-10,38
2021-11-08 23:27:18.500000-05:00,-40,-10,41
2021-11-08 23:27:18.531250-05:00,-59,-13,55
2021-11-08 23:27:18.562500-05:00,-67,-20,62
2021-11-08 23:27:18.593750-05:00,-90,-34,82
